"","gameID","_id","aID","batch","condition","demo_dur","demo_seq","eventType","file_id","hitID","internal_node_id","iterationName","key_press","keyboard_response","numTrials","phase","prompt","recruitmentPlatform","reference","response_ends_trial","rt","stim_url","stimulus","stimulus_duration","timeROIPresented","timeVideoPresented","time_elapsed","toy_id","toy_type","toy_variant","trialNum","trial_duration","trial_index","trial_type","type","version","wID","corr_roi","corrAns","corrType","key_check","legend"
"1","0161-bc6fe497-dd4b-402e-a8db-57412c26fa89","5fd12fa49916af6a5522b038",NA,NA,"depictive",30,"BAAB","intervention","gears_1_BAAB_30",NA,"0.0-30.0","sanitycheck3",4,1607544740649,6,"intervention",NA,"sona","stim/gears_1_annotations_reduced.png",TRUE,1073,"https://causaldraw.s3.amazonaws.com/gears_1_BAAB_30.mp4","stim/gears_1_annotations_edited.png",NA,1607544739576,1607544707880,596412,"gears_1","gears","1",4,NA,30,"video-keyboard-response","video-keyboard-response",4,NA,"4",1,1,NA,4
"2","0161-bc6fe497-dd4b-402e-a8db-57412c26fa89","5fd12f1b9916af6a5522b020",NA,NA,"depictive",30,"BAAB","intervention","levers_2_BAAB_30",NA,"0.0-26.0","sanitycheck3",2,1607544603556,6,"intervention",NA,"sona","stim/levers_2_annotations_reduced.png",TRUE,1019,"https://causaldraw.s3.amazonaws.com/levers_2_BAAB_30.mp4","stim/gears_1_annotations_edited.png",NA,1607544602537,1607544570214,459320,"levers_2","levers","2",0,NA,26,"video-keyboard-response","video-keyboard-response",4,NA,"2",1,1,NA,2
"3","0161-bc6fe497-dd4b-402e-a8db-57412c26fa89","5fd12f3d9916af6a5522b024",NA,NA,"explanatory",30,"BAAB","intervention","gears_2_BAAB_30",NA,"0.0-27.0","sanitycheck3",3,1607544637530,6,"intervention",NA,"sona","stim/gears_2_annotations_reduced.png",TRUE,1053,"https://causaldraw.s3.amazonaws.com/gears_2_BAAB_30.mp4","stim/gears_1_annotations_edited.png",NA,1607544636477,1607544604566,493294,"gears_2","gears","2",1,NA,27,"video-keyboard-response","video-keyboard-response",4,NA,"3",1,1,NA,3
"4","0161-bc6fe497-dd4b-402e-a8db-57412c26fa89","5fd12f829916af6a5522b02b",NA,NA,"explanatory",30,"ABBA","intervention","pulleys_1_ABBA_30",NA,"0.0-29.0","sanitycheck3",1,1607544706873,6,"intervention",NA,"sona","stim/pulleys_1_annotations_reduced.png",TRUE,938,"https://causaldraw.s3.amazonaws.com/pulleys_1_ABBA_30.mp4","stim/gears_1_annotations_edited.png",NA,1607544705935,1607544674471,562636,"pulleys_1","pulleys","1",3,NA,29,"video-keyboard-response","video-keyboard-response",4,NA,"1",1,1,NA,1
"5","0161-bc6fe497-dd4b-402e-a8db-57412c26fa89","5fd12f619916af6a5522b028",NA,NA,"depictive",30,"ABBA","intervention","pulleys_2_ABBA_30",NA,"0.0-28.0","sanitycheck3",1,1607544673461,6,"intervention",NA,"sona","stim/pulleys_2_annotations_reduced.png",TRUE,3343,"https://causaldraw.s3.amazonaws.com/pulleys_2_ABBA_30.mp4","stim/gears_1_annotations_edited.png",NA,1607544670118,1607544638539,529225,"pulleys_2","pulleys","2",2,NA,28,"video-keyboard-response","video-keyboard-response",4,NA,"1",1,1,NA,1
"6","0161-bc6fe497-dd4b-402e-a8db-57412c26fa89","5fd12fc69916af6a5522b040",NA,NA,"explanatory",30,"ABBA","intervention","levers_1_ABBA_30",NA,"0.0-31.0","sanitycheck3",4,1607544774227,6,"intervention",NA,"sona","stim/levers_1_annotations_reduced.png",TRUE,1179,"https://causaldraw.s3.amazonaws.com/levers_1_ABBA_30.mp4","stim/gears_1_annotations_edited.png",NA,1607544773048,1607544741659,629990,"levers_1","levers","1",5,NA,31,"video-keyboard-response","video-keyboard-response",4,NA,"4",1,1,NA,4
"7","0946-60b5e2eb-f257-4cf9-8e5a-f203279f4bd7","5fd093b19916af6a5522ab97",NA,NA,"depictive",30,"BAAB","intervention","pulleys_2_BAAB_30",NA,"0.0-28.0","sanitycheck3",2,1607504818490,6,"intervention",NA,"sona","stim/pulleys_2_annotations_reduced.png",TRUE,1863,"https://causaldraw.s3.amazonaws.com/pulleys_2_BAAB_30.mp4","stim/gears_1_annotations_edited.png",NA,1607504816627,1607504784213,928961,"pulleys_2","pulleys","2",2,NA,29,"video-keyboard-response","video-keyboard-response",80,NA,"1",0,1,NA,1
"8","0946-60b5e2eb-f257-4cf9-8e5a-f203279f4bd7","5fd0936b9916af6a5522ab87",NA,NA,"explanatory",30,"ABBA","intervention","pulleys_1_ABBA_30",NA,"0.0-26.0","sanitycheck3",1,1607504748551,6,"intervention",NA,"sona","stim/pulleys_1_annotations_reduced.png",TRUE,3445,"https://causaldraw.s3.amazonaws.com/pulleys_1_ABBA_30.mp4","stim/gears_1_annotations_edited.png",NA,1607504745106,1607504713202,859022,"pulleys_1","pulleys","1",0,NA,27,"video-keyboard-response","video-keyboard-response",80,NA,"1",1,1,NA,1
"9","0946-60b5e2eb-f257-4cf9-8e5a-f203279f4bd7","5fd093f69916af6a5522ab9c",NA,NA,"depictive",30,"ABBA","intervention","levers_2_ABBA_30",NA,"0.0-30.0","sanitycheck3",2,1607504888016,6,"intervention",NA,"sona","stim/levers_2_annotations_reduced.png",TRUE,1334,"https://causaldraw.s3.amazonaws.com/levers_2_ABBA_30.mp4","stim/gears_1_annotations_edited.png",NA,1607504886682,1607504854211,998487,"levers_2","levers","2",4,NA,31,"video-keyboard-response","video-keyboard-response",80,NA,"2",1,1,NA,2
"10","0946-60b5e2eb-f257-4cf9-8e5a-f203279f4bd7","5fd0938d9916af6a5522ab88",NA,NA,"explanatory",30,"BAAB","intervention","gears_1_BAAB_30",NA,"0.0-27.0","sanitycheck3",4,1607504783205,6,"intervention",NA,"sona","stim/gears_1_annotations_reduced.png",TRUE,1759,"https://causaldraw.s3.amazonaws.com/gears_1_BAAB_30.mp4","stim/gears_1_annotations_edited.png",NA,1607504781446,1607504749563,893676,"gears_1","gears","1",1,NA,28,"video-keyboard-response","video-keyboard-response",80,NA,"4",1,1,NA,4
"11","0946-60b5e2eb-f257-4cf9-8e5a-f203279f4bd7","5fd094179916af6a5522ab9e",NA,NA,"explanatory",30,"BAAB","intervention","levers_1_BAAB_30",NA,"0.0-31.0","sanitycheck3",4,1607504921406,6,"intervention",NA,"sona","stim/levers_1_annotations_reduced.png",TRUE,1123,"https://causaldraw.s3.amazonaws.com/levers_1_BAAB_30.mp4","stim/gears_1_annotations_edited.png",NA,1607504920283,1607504889020,1031877,"levers_1","levers","1",5,NA,32,"video-keyboard-response","video-keyboard-response",80,NA,"4",1,1,NA,4
"12","0946-60b5e2eb-f257-4cf9-8e5a-f203279f4bd7","5fd093d39916af6a5522ab9a",NA,NA,"depictive",30,"ABBA","intervention","gears_2_ABBA_30",NA,"0.0-29.0","sanitycheck3",3,1607504853200,6,"intervention",NA,"sona","stim/gears_2_annotations_reduced.png",TRUE,1275,"https://causaldraw.s3.amazonaws.com/gears_2_ABBA_30.mp4","stim/gears_1_annotations_edited.png",NA,1607504851925,1607504819513,963671,"gears_2","gears","2",3,NA,30,"video-keyboard-response","video-keyboard-response",80,NA,"3",1,1,NA,3
"13","1276-8ba7ddb1-9a6b-42d0-a928-8c2b34cc16ce","5fd139a89916af6a5522b1b7",NA,NA,"depictive",30,"BAAB","intervention","levers_1_BAAB_30",NA,"0.0-26.0","sanitycheck3",4,1607547305279,6,"intervention",NA,"sona","stim/levers_1_annotations_reduced.png",TRUE,16000,"https://causaldraw.s3.amazonaws.com/levers_1_BAAB_30.mp4","stim/gears_1_annotations_edited.png",NA,1607547289279,1607547257904,257080,"levers_1","levers","1",0,NA,26,"video-keyboard-response","video-keyboard-response",51,NA,"4",1,1,NA,4
"14","1276-8ba7ddb1-9a6b-42d0-a928-8c2b34cc16ce","5fd13a3c9916af6a5522b1da",NA,NA,"depictive",30,"ABBA","intervention","gears_2_ABBA_30",NA,"0.0-30.0","sanitycheck3",4,1607547452454,6,"intervention",NA,"sona","stim/gears_2_annotations_reduced.png",TRUE,1757,"https://causaldraw.s3.amazonaws.com/gears_2_ABBA_30.mp4","stim/gears_1_annotations_edited.png",NA,1607547450697,1607547418233,404253,"gears_2","gears","2",4,NA,30,"video-keyboard-response","video-keyboard-response",51,NA,"3",0,1,NA,3
"15","1276-8ba7ddb1-9a6b-42d0-a928-8c2b34cc16ce","5fd139f39916af6a5522b1c8",NA,NA,"explanatory",30,"BAAB","intervention","levers_2_BAAB_30",NA,"0.0-28.0","sanitycheck3",4,1607547380363,6,"intervention",NA,"sona","stim/levers_2_annotations_reduced.png",TRUE,8136,"https://causaldraw.s3.amazonaws.com/levers_2_BAAB_30.mp4","stim/gears_1_annotations_edited.png",NA,1607547372227,1607547339751,332163,"levers_2","levers","2",2,NA,28,"video-keyboard-response","video-keyboard-response",51,NA,"2",0,1,NA,2
"16","1276-8ba7ddb1-9a6b-42d0-a928-8c2b34cc16ce","5fd13a189916af6a5522b1d7",NA,NA,"depictive",30,"BAAB","intervention","pulleys_1_BAAB_30",NA,"0.0-29.0","sanitycheck3",3,1607547417231,6,"intervention",NA,"sona","stim/pulleys_1_annotations_reduced.png",TRUE,3554,"https://causaldraw.s3.amazonaws.com/pulleys_1_BAAB_30.mp4","stim/gears_1_annotations_edited.png",NA,1607547413677,1607547381365,369030,"pulleys_1","pulleys","1",3,NA,29,"video-keyboard-response","video-keyboard-response",51,NA,"1",0,1,NA,1
"17","1276-8ba7ddb1-9a6b-42d0-a928-8c2b34cc16ce","5fd139ca9916af6a5522b1c2",NA,NA,"explanatory",30,"ABBA","intervention","gears_1_ABBA_30",NA,"0.0-27.0","sanitycheck3",4,1607547338749,6,"intervention",NA,"sona","stim/gears_1_annotations_reduced.png",TRUE,1122,"https://causaldraw.s3.amazonaws.com/gears_1_ABBA_30.mp4","stim/gears_1_annotations_edited.png",NA,1607547337627,1607547306284,290548,"gears_1","gears","1",1,NA,27,"video-keyboard-response","video-keyboard-response",51,NA,"4",1,1,NA,4
"18","1276-8ba7ddb1-9a6b-42d0-a928-8c2b34cc16ce","5fd13a609916af6a5522b1dd",NA,NA,"explanatory",30,"ABBA","intervention","pulleys_2_ABBA_30",NA,"0.0-31.0","sanitycheck3",1,1607547488975,6,"intervention",NA,"sona","stim/pulleys_2_annotations_reduced.png",TRUE,3799,"https://causaldraw.s3.amazonaws.com/pulleys_2_ABBA_30.mp4","stim/gears_1_annotations_edited.png",NA,1607547485176,1607547453456,440775,"pulleys_2","pulleys","2",5,NA,31,"video-keyboard-response","video-keyboard-response",51,NA,"1",1,1,NA,1
"19","1318-2d223a73-fcda-4255-b4fc-1fe2af79c579","5fd12fac9916af6a5522b03d",NA,NA,"explanatory",30,"ABBA","intervention","pulleys_2_ABBA_30",NA,"0.0-26.0","sanitycheck3",1,1607544749204,6,"intervention",NA,"sona","stim/pulleys_2_annotations_reduced.png",TRUE,5959,"https://causaldraw.s3.amazonaws.com/pulleys_2_ABBA_30.mp4","stim/gears_1_annotations_edited.png",NA,1607544743245,1607544710559,322622,"pulleys_2","pulleys","2",0,NA,26,"video-keyboard-response","video-keyboard-response",7,NA,"1",1,1,NA,1
"20","1318-2d223a73-fcda-4255-b4fc-1fe2af79c579","5fd1301c9916af6a5522b05b",NA,NA,"depictive",30,"ABBA","intervention","levers_1_ABBA_30",NA,"0.0-29.0","sanitycheck3",4,1607544860846,6,"intervention",NA,"sona","stim/levers_1_annotations_reduced.png",TRUE,1953,"https://causaldraw.s3.amazonaws.com/levers_1_ABBA_30.mp4","stim/gears_1_annotations_edited.png",NA,1607544858893,1607544825687,434265,"levers_1","levers","1",3,NA,29,"video-keyboard-response","video-keyboard-response",7,NA,"4",1,1,NA,4
"21","1318-2d223a73-fcda-4255-b4fc-1fe2af79c579","5fd12fd39916af6a5522b042",NA,NA,"depictive",30,"BAAB","intervention","gears_1_BAAB_30",NA,"0.0-27.0","sanitycheck3",4,1607544788112,6,"intervention",NA,"sona","stim/gears_1_annotations_reduced.png",TRUE,4933,"https://causaldraw.s3.amazonaws.com/gears_1_BAAB_30.mp4","stim/gears_1_annotations_edited.png",NA,1607544783179,1607544750222,361530,"gears_1","gears","1",1,NA,27,"video-keyboard-response","video-keyboard-response",7,NA,"4",1,1,NA,4
"22","1318-2d223a73-fcda-4255-b4fc-1fe2af79c579","5fd130449916af6a5522b064",NA,NA,"explanatory",30,"BAAB","intervention","levers_2_BAAB_30",NA,"0.0-30.0","sanitycheck3",4,1607544900678,6,"intervention",NA,"sona","stim/levers_2_annotations_reduced.png",TRUE,5967,"https://causaldraw.s3.amazonaws.com/levers_2_BAAB_30.mp4","stim/gears_1_annotations_edited.png",NA,1607544894711,1607544861869,474096,"levers_2","levers","2",4,NA,30,"video-keyboard-response","video-keyboard-response",7,NA,"2",0,1,NA,2
"23","1318-2d223a73-fcda-4255-b4fc-1fe2af79c579","5fd130669916af6a5522b067",NA,NA,"explanatory",30,"BAAB","intervention","gears_2_BAAB_30",NA,"0.0-31.0","sanitycheck3",3,1607544934805,6,"intervention",NA,"sona","stim/gears_2_annotations_reduced.png",TRUE,971,"https://causaldraw.s3.amazonaws.com/gears_2_BAAB_30.mp4","stim/gears_1_annotations_edited.png",NA,1607544933834,1607544901688,508224,"gears_2","gears","2",5,NA,31,"video-keyboard-response","video-keyboard-response",7,NA,"3",1,1,NA,3
"24","1318-2d223a73-fcda-4255-b4fc-1fe2af79c579","5fd12ff89916af6a5522b04f",NA,NA,"depictive",30,"ABBA","intervention","pulleys_1_ABBA_30",NA,"0.0-28.0","sanitycheck3",1,1607544824665,6,"intervention",NA,"sona","stim/pulleys_1_annotations_reduced.png",TRUE,3728,"https://causaldraw.s3.amazonaws.com/pulleys_1_ABBA_30.mp4","stim/gears_1_annotations_edited.png",NA,1607544820937,1607544789121,398084,"pulleys_1","pulleys","1",2,NA,28,"video-keyboard-response","video-keyboard-response",7,NA,"1",1,1,NA,1
"25","1382-e6b5074f-5277-4a1b-865e-b60baeb56167","5fd0e4b79916af6a5522ad57",NA,NA,"explanatory",30,"ABBA","intervention","pulleys_1_ABBA_30",NA,"0.0-29.0","sanitycheck3",4,1607525582105,6,"intervention",NA,"sona","stim/pulleys_1_annotations_reduced.png",TRUE,14474,"https://causaldraw.s3.amazonaws.com/pulleys_1_ABBA_30.mp4","stim/gears_1_annotations_edited.png",NA,1607525567631,1607525534144,1062861,"pulleys_1","pulleys","1",3,NA,39,"video-keyboard-response","video-keyboard-response",17,NA,"1",0,0,NA,1
"26","1382-e6b5074f-5277-4a1b-865e-b60baeb56167","5fd0e3b79916af6a5522ad4f",NA,NA,"explanatory",30,"BAAB","intervention","gears_1_BAAB_30",NA,"0.0-26.0","sanitycheck3",3,1607525326162,6,"intervention",NA,"sona","stim/gears_1_annotations_reduced.png",TRUE,9502,"https://causaldraw.s3.amazonaws.com/gears_1_BAAB_30.mp4","stim/gears_1_annotations_edited.png",NA,1607525316660,1607525252990,806918,"gears_1","gears","1",0,NA,36,"video-keyboard-response","video-keyboard-response",17,NA,"4",0,1,NA,4
"27","1382-e6b5074f-5277-4a1b-865e-b60baeb56167","5fd0e4229916af6a5522ad51",NA,NA,"depictive",30,"ABBA","intervention","pulleys_2_ABBA_30",NA,"0.0-27.0","sanitycheck3",1,1607525433296,6,"intervention",NA,"sona","stim/pulleys_2_annotations_reduced.png",TRUE,5634,"https://causaldraw.s3.amazonaws.com/pulleys_2_ABBA_30.mp4","stim/gears_1_annotations_edited.png",NA,1607525427662,1607525327169,914052,"pulleys_2","pulleys","2",1,NA,37,"video-keyboard-response","video-keyboard-response",17,NA,"1",1,1,NA,1
"28","1382-e6b5074f-5277-4a1b-865e-b60baeb56167","5fd0e4869916af6a5522ad54",NA,NA,"explanatory",30,"BAAB","intervention","levers_2_BAAB_30",NA,"0.0-28.0","sanitycheck3",2,1607525533136,6,"intervention",NA,"sona","stim/levers_2_annotations_reduced.png",TRUE,1962,"https://causaldraw.s3.amazonaws.com/levers_2_BAAB_30.mp4","stim/gears_1_annotations_edited.png",NA,1607525531174,1607525434301,1013892,"levers_2","levers","2",2,NA,38,"video-keyboard-response","video-keyboard-response",17,NA,"2",1,1,NA,2
"29","1382-e6b5074f-5277-4a1b-865e-b60baeb56167","5fd0e4da9916af6a5522ad59",NA,NA,"depictive",30,"BAAB","intervention","levers_1_BAAB_30",NA,"0.0-30.0","sanitycheck3",2,1607525617605,6,"intervention",NA,"sona","stim/levers_1_annotations_reduced.png",TRUE,2159,"https://causaldraw.s3.amazonaws.com/levers_1_BAAB_30.mp4","stim/gears_1_annotations_edited.png",NA,1607525615446,1607525583110,1098361,"levers_1","levers","1",4,NA,40,"video-keyboard-response","video-keyboard-response",17,NA,"4",0,1,NA,4
"30","1382-e6b5074f-5277-4a1b-865e-b60baeb56167","5fd0e53b9916af6a5522ad69",NA,NA,"depictive",30,"ABBA","intervention","gears_2_ABBA_30",NA,"0.0-31.0","sanitycheck3",3,1607525691014,6,"intervention",NA,"sona","stim/gears_2_annotations_reduced.png",TRUE,1828,"https://causaldraw.s3.amazonaws.com/gears_2_ABBA_30.mp4","stim/gears_1_annotations_edited.png",NA,1607525689186,1607525618609,1171770,"gears_2","gears","2",5,NA,41,"video-keyboard-response","video-keyboard-response",17,NA,"3",1,1,NA,3
"31","1536-8aa075a1-347e-43d3-b13a-fa521f7dd84e","5fd09bcb9916af6a5522abf5",NA,NA,"depictive",30,"BAAB","intervention","levers_2_BAAB_30",NA,"0.0-26.0","sanitycheck3",2,1607506891986,6,"intervention",NA,"sona","stim/levers_2_annotations_reduced.png",TRUE,3854,"https://causaldraw.s3.amazonaws.com/levers_2_BAAB_30.mp4","stim/gears_1_annotations_edited.png",NA,1607506888132,1607506855884,470607,"levers_2","levers","2",0,NA,26,"video-keyboard-response","video-keyboard-response",104,NA,"2",1,1,NA,2
"32","1536-8aa075a1-347e-43d3-b13a-fa521f7dd84e","5fd09c839916af6a5522abfe",NA,NA,"explanatory",30,"ABBA","intervention","gears_1_ABBA_30",NA,"0.0-31.0","sanitycheck3",3,1607507076425,6,"intervention",NA,"sona","stim/gears_1_annotations_reduced.png",TRUE,1993,"https://causaldraw.s3.amazonaws.com/gears_1_ABBA_30.mp4","stim/gears_1_annotations_edited.png",NA,1607507074432,1607507043122,655046,"gears_1","gears","1",5,NA,31,"video-keyboard-response","video-keyboard-response",104,NA,"4",0,1,NA,4
"33","1536-8aa075a1-347e-43d3-b13a-fa521f7dd84e","5fd09c199916af6a5522abf8",NA,NA,"depictive",30,"BAAB","intervention","gears_2_BAAB_30",NA,"0.0-28.0","sanitycheck3",4,1607506969901,6,"intervention",NA,"sona","stim/gears_2_annotations_reduced.png",TRUE,1349,"https://causaldraw.s3.amazonaws.com/gears_2_BAAB_30.mp4","stim/gears_1_annotations_edited.png",NA,1607506968552,1607506936749,548522,"gears_2","gears","2",2,NA,28,"video-keyboard-response","video-keyboard-response",104,NA,"3",0,1,NA,3
"34","1536-8aa075a1-347e-43d3-b13a-fa521f7dd84e","5fd09c3e9916af6a5522abfa",NA,NA,"explanatory",30,"BAAB","intervention","pulleys_1_BAAB_30",NA,"0.0-29.0","sanitycheck3",1,1607507006846,6,"intervention",NA,"sona","stim/pulleys_1_annotations_reduced.png",TRUE,3754,"https://causaldraw.s3.amazonaws.com/pulleys_1_BAAB_30.mp4","stim/gears_1_annotations_edited.png",NA,1607507003092,1607506970907,585467,"pulleys_1","pulleys","1",3,NA,29,"video-keyboard-response","video-keyboard-response",104,NA,"1",1,1,NA,1
"35","1536-8aa075a1-347e-43d3-b13a-fa521f7dd84e","5fd09bf69916af6a5522abf6",NA,NA,"depictive",30,"ABBA","intervention","pulleys_2_ABBA_30",NA,"0.0-27.0","sanitycheck3",1,1607506935743,6,"intervention",NA,"sona","stim/pulleys_2_annotations_reduced.png",TRUE,11091,"https://causaldraw.s3.amazonaws.com/pulleys_2_ABBA_30.mp4","stim/gears_1_annotations_edited.png",NA,1607506924652,1607506892993,514364,"pulleys_2","pulleys","2",1,NA,27,"video-keyboard-response","video-keyboard-response",104,NA,"1",1,1,NA,1
"36","1536-8aa075a1-347e-43d3-b13a-fa521f7dd84e","5fd09c619916af6a5522abfc",NA,NA,"explanatory",30,"ABBA","intervention","levers_1_ABBA_30",NA,"0.0-30.0","sanitycheck3",4,1607507042118,6,"intervention",NA,"sona","stim/levers_1_annotations_reduced.png",TRUE,2706,"https://causaldraw.s3.amazonaws.com/levers_1_ABBA_30.mp4","stim/gears_1_annotations_edited.png",NA,1607507039412,1607507007851,620739,"levers_1","levers","1",4,NA,30,"video-keyboard-response","video-keyboard-response",104,NA,"4",1,1,NA,4
"37","1748-ce99052f-e62d-49e1-8f21-035bfd605775","5fd0d76b9916af6a5522ad15",NA,NA,"explanatory",30,"BAAB","intervention","gears_1_BAAB_30",NA,"0.0-27.0","sanitycheck3",4,1607522085126,6,"intervention",NA,"sona","stim/gears_1_annotations_reduced.png",TRUE,982,"https://causaldraw.s3.amazonaws.com/gears_1_BAAB_30.mp4","stim/gears_1_annotations_edited.png",NA,1607522084144,1607522051333,378206,"gears_1","gears","1",1,NA,27,"video-keyboard-response","video-keyboard-response",8,NA,"4",1,1,NA,4
"38","1748-ce99052f-e62d-49e1-8f21-035bfd605775","5fd0d7489916af6a5522ad13",NA,NA,"depictive",30,"ABBA","intervention","pulleys_2_ABBA_30",NA,"0.0-26.0","sanitycheck3",2,1607522050326,6,"intervention",NA,"sona","stim/pulleys_2_annotations_reduced.png",TRUE,3729,"https://causaldraw.s3.amazonaws.com/pulleys_2_ABBA_30.mp4","stim/gears_1_annotations_edited.png",NA,1607522046597,1607522013396,343406,"pulleys_2","pulleys","2",0,NA,26,"video-keyboard-response","video-keyboard-response",8,NA,"1",0,1,NA,1
"39","1748-ce99052f-e62d-49e1-8f21-035bfd605775","5fd0d78f9916af6a5522ad16",NA,NA,"explanatory",30,"BAAB","intervention","pulleys_1_BAAB_30",NA,"0.0-28.0","sanitycheck3",1,1607522121421,6,"intervention",NA,"sona","stim/pulleys_1_annotations_reduced.png",TRUE,1840,"https://causaldraw.s3.amazonaws.com/pulleys_1_BAAB_30.mp4","stim/gears_1_annotations_edited.png",NA,1607522119581,1607522086132,414501,"pulleys_1","pulleys","1",2,NA,28,"video-keyboard-response","video-keyboard-response",8,NA,"1",1,1,NA,1
"40","1748-ce99052f-e62d-49e1-8f21-035bfd605775","5fd0d7d59916af6a5522ad24",NA,NA,"depictive",30,"ABBA","intervention","gears_2_ABBA_30",NA,"0.0-30.0","sanitycheck3",3,1607522191223,6,"intervention",NA,"sona","stim/gears_2_annotations_reduced.png",TRUE,962,"https://causaldraw.s3.amazonaws.com/gears_2_ABBA_30.mp4","stim/gears_1_annotations_edited.png",NA,1607522190261,1607522156978,484303,"gears_2","gears","2",4,NA,30,"video-keyboard-response","video-keyboard-response",8,NA,"3",1,1,NA,3
"41","1748-ce99052f-e62d-49e1-8f21-035bfd605775","5fd0d7b29916af6a5522ad1a",NA,NA,"depictive",30,"ABBA","intervention","levers_2_ABBA_30",NA,"0.0-29.0","sanitycheck3",2,1607522155972,6,"intervention",NA,"sona","stim/levers_2_annotations_reduced.png",TRUE,1330,"https://causaldraw.s3.amazonaws.com/levers_2_ABBA_30.mp4","stim/gears_1_annotations_edited.png",NA,1607522154642,1607522122428,449052,"levers_2","levers","2",3,NA,29,"video-keyboard-response","video-keyboard-response",8,NA,"2",1,1,NA,2
"42","1748-ce99052f-e62d-49e1-8f21-035bfd605775","5fd0d7f79916af6a5522ad26",NA,NA,"explanatory",30,"BAAB","intervention","levers_1_BAAB_30",NA,"0.0-31.0","sanitycheck3",4,1607522224939,6,"intervention",NA,"sona","stim/levers_1_annotations_reduced.png",TRUE,845,"https://causaldraw.s3.amazonaws.com/levers_1_BAAB_30.mp4","stim/gears_1_annotations_edited.png",NA,1607522224094,1607522192230,518020,"levers_1","levers","1",5,NA,31,"video-keyboard-response","video-keyboard-response",8,NA,"4",1,1,NA,4
"43","1764-243bcf96-6f96-402a-a5c8-cc459e5b1954","5fd12efb9916af6a5522b012",NA,NA,"explanatory",30,"ABBA","intervention","pulleys_2_ABBA_30",NA,"0.0-30.0","sanitycheck3",2,1607544571021,6,"intervention",NA,"sona","stim/pulleys_2_annotations_reduced.png",TRUE,2075,"https://causaldraw.s3.amazonaws.com/pulleys_2_ABBA_30.mp4","stim/gears_1_annotations_edited.png",NA,1607544568946,1607544536780,473725,"pulleys_2","pulleys","2",4,NA,31,"video-keyboard-response","video-keyboard-response",2,NA,"1",0,1,NA,1
"44","1764-243bcf96-6f96-402a-a5c8-cc459e5b1954","5fd12ed79916af6a5522b00a",NA,NA,"depictive",30,"BAAB","intervention","gears_2_BAAB_30",NA,"0.0-29.0","sanitycheck3",4,1607544535767,6,"intervention",NA,"sona","stim/gears_2_annotations_reduced.png",TRUE,3240,"https://causaldraw.s3.amazonaws.com/gears_2_BAAB_30.mp4","stim/gears_1_annotations_edited.png",NA,1607544532527,1607544500550,438471,"gears_2","gears","2",3,NA,30,"video-keyboard-response","video-keyboard-response",2,NA,"3",0,1,NA,3
"45","1764-243bcf96-6f96-402a-a5c8-cc459e5b1954","5fd12f229916af6a5522b021",NA,NA,"depictive",30,"ABBA","intervention","pulleys_1_ABBA_30",NA,"0.0-31.0","sanitycheck3",1,1607544610118,6,"intervention",NA,"sona","stim/pulleys_1_annotations_reduced.png",TRUE,6511,"https://causaldraw.s3.amazonaws.com/pulleys_1_ABBA_30.mp4","stim/gears_1_annotations_edited.png",NA,1607544603607,1607544572040,512822,"pulleys_1","pulleys","1",5,NA,32,"video-keyboard-response","video-keyboard-response",2,NA,"1",1,1,NA,1
"46","1764-243bcf96-6f96-402a-a5c8-cc459e5b1954","5fd12eb39916af6a5522b000",NA,NA,"depictive",30,"BAAB","intervention","levers_2_BAAB_30",NA,"0.0-28.0","sanitycheck3",4,1607544499538,6,"intervention",NA,"sona","stim/levers_2_annotations_reduced.png",TRUE,3267,"https://causaldraw.s3.amazonaws.com/levers_2_BAAB_30.mp4","stim/gears_1_annotations_edited.png",NA,1607544496271,1607544463597,402243,"levers_2","levers","2",2,NA,29,"video-keyboard-response","video-keyboard-response",2,NA,"2",0,1,NA,2
"47","1764-243bcf96-6f96-402a-a5c8-cc459e5b1954","5fd12e6b9916af6a5522aff9",NA,NA,"explanatory",30,"BAAB","intervention","gears_1_BAAB_30",NA,"0.0-26.0","sanitycheck3",4,1607544427504,6,"intervention",NA,"sona","stim/gears_1_annotations_reduced.png",TRUE,5197,"https://causaldraw.s3.amazonaws.com/gears_1_BAAB_30.mp4","stim/gears_1_annotations_edited.png",NA,1607544422307,1607544390349,330208,"gears_1","gears","1",0,NA,27,"video-keyboard-response","video-keyboard-response",2,NA,"4",1,1,NA,4
"48","1764-243bcf96-6f96-402a-a5c8-cc459e5b1954","5fd12e8e9916af6a5522affc",NA,NA,"explanatory",30,"ABBA","intervention","levers_1_ABBA_30",NA,"0.0-27.0","sanitycheck3",4,1607544462586,6,"intervention",NA,"sona","stim/levers_1_annotations_reduced.png",TRUE,2356,"https://causaldraw.s3.amazonaws.com/levers_1_ABBA_30.mp4","stim/gears_1_annotations_edited.png",NA,1607544460230,1607544428519,365290,"levers_1","levers","1",1,NA,28,"video-keyboard-response","video-keyboard-response",2,NA,"4",1,1,NA,4
"49","2033-ee72cef2-23d6-4478-bca9-47c1ef0cf861","5fd129339916af6a5522af65",NA,NA,"explanatory",30,"BAAB","intervention","levers_1_BAAB_30",NA,"0.0-28.0","sanitycheck3",4,1607543091072,6,"intervention",NA,"sona","stim/levers_1_annotations_reduced.png",TRUE,1714,"https://causaldraw.s3.amazonaws.com/levers_1_BAAB_30.mp4","stim/gears_1_annotations_edited.png",NA,1607543089358,1607543057760,511374,"levers_1","levers","1",2,NA,28,"video-keyboard-response","video-keyboard-response",132,NA,"4",1,1,NA,4
"50","2033-ee72cef2-23d6-4478-bca9-47c1ef0cf861","5fd129599916af6a5522af67",NA,NA,"depictive",30,"BAAB","intervention","levers_2_BAAB_30",NA,"0.0-29.0","sanitycheck3",4,1607543129529,6,"intervention",NA,"sona","stim/levers_2_annotations_reduced.png",TRUE,4245,"https://causaldraw.s3.amazonaws.com/levers_2_BAAB_30.mp4","stim/gears_1_annotations_edited.png",NA,1607543125284,1607543092079,549831,"levers_2","levers","2",3,NA,29,"video-keyboard-response","video-keyboard-response",132,NA,"2",0,1,NA,2
"51","2033-ee72cef2-23d6-4478-bca9-47c1ef0cf861","5fd129109916af6a5522af63",NA,NA,"explanatory",30,"ABBA","intervention","pulleys_1_ABBA_30",NA,"0.0-27.0","sanitycheck3",3,1607543056751,6,"intervention",NA,"sona","stim/pulleys_1_annotations_reduced.png",TRUE,37964,"https://causaldraw.s3.amazonaws.com/pulleys_1_ABBA_30.mp4","stim/gears_1_annotations_edited.png",NA,1607543018787,1607542987170,477054,"pulleys_1","pulleys","1",1,NA,27,"video-keyboard-response","video-keyboard-response",132,NA,"1",0,1,NA,1
"52","2033-ee72cef2-23d6-4478-bca9-47c1ef0cf861","5fd129b09916af6a5522af86",NA,NA,"explanatory",30,"BAAB","intervention","gears_2_BAAB_30",NA,"0.0-31.0","sanitycheck3",4,1607543216244,6,"intervention",NA,"sona","stim/gears_2_annotations_reduced.png",TRUE,4033,"https://causaldraw.s3.amazonaws.com/gears_2_BAAB_30.mp4","stim/gears_1_annotations_edited.png",NA,1607543212211,1607543180173,636547,"gears_2","gears","2",5,NA,31,"video-keyboard-response","video-keyboard-response",132,NA,"3",0,1,NA,3
"53","2033-ee72cef2-23d6-4478-bca9-47c1ef0cf861","5fd128ca9916af6a5522af5f",NA,NA,"depictive",30,"ABBA","intervention","gears_1_ABBA_30",NA,"0.0-26.0","sanitycheck3",3,1607542986162,6,"intervention",NA,"sona","stim/gears_1_annotations_reduced.png",TRUE,3749,"https://causaldraw.s3.amazonaws.com/gears_1_ABBA_30.mp4","stim/gears_1_annotations_edited.png",NA,1607542982413,1607542950757,406464,"gears_1","gears","1",0,NA,26,"video-keyboard-response","video-keyboard-response",132,NA,"4",0,1,NA,4
"54","2033-ee72cef2-23d6-4478-bca9-47c1ef0cf861","5fd1298b9916af6a5522af70",NA,NA,"depictive",30,"ABBA","intervention","pulleys_2_ABBA_30",NA,"0.0-30.0","sanitycheck3",2,1607543179164,6,"intervention",NA,"sona","stim/pulleys_2_annotations_reduced.png",TRUE,16482,"https://causaldraw.s3.amazonaws.com/pulleys_2_ABBA_30.mp4","stim/gears_1_annotations_edited.png",NA,1607543162682,1607543130533,599467,"pulleys_2","pulleys","2",4,NA,30,"video-keyboard-response","video-keyboard-response",132,NA,"1",0,1,NA,1
"55","2069-f837e012-1ed5-4fea-93fd-2a793518267b","5fd13e239916af6a5522b1fc",NA,NA,"depictive",30,"ABBA","intervention","levers_2_ABBA_30",NA,"0.0-26.0","sanitycheck3",4,1607548451147,6,"intervention",NA,"sona","stim/levers_2_annotations_reduced.png",TRUE,42581,"https://causaldraw.s3.amazonaws.com/levers_2_ABBA_30.mp4","stim/gears_1_annotations_edited.png",NA,1607548408566,1607548376357,1022982,"levers_2","levers","2",0,NA,28,"video-keyboard-response","video-keyboard-response",60,NA,"2",0,1,NA,2
"56","2069-f837e012-1ed5-4fea-93fd-2a793518267b","5fd13e469916af6a5522b1fd",NA,NA,"explanatory",30,"BAAB","intervention","gears_2_BAAB_30",NA,"0.0-27.0","sanitycheck3",3,1607548486971,6,"intervention",NA,"sona","stim/gears_2_annotations_reduced.png",TRUE,2636,"https://causaldraw.s3.amazonaws.com/gears_2_BAAB_30.mp4","stim/gears_1_annotations_edited.png",NA,1607548484335,1607548452154,1058806,"gears_2","gears","2",1,NA,29,"video-keyboard-response","video-keyboard-response",60,NA,"3",1,1,NA,3
"57","2069-f837e012-1ed5-4fea-93fd-2a793518267b","5fd13e699916af6a5522b1fe",NA,NA,"explanatory",30,"ABBA","intervention","pulleys_1_ABBA_30",NA,"0.0-28.0","sanitycheck3",1,1607548521559,6,"intervention",NA,"sona","stim/pulleys_1_annotations_reduced.png",TRUE,2003,"https://causaldraw.s3.amazonaws.com/pulleys_1_ABBA_30.mp4","stim/gears_1_annotations_edited.png",NA,1607548519556,1607548487980,1093395,"pulleys_1","pulleys","1",2,NA,30,"video-keyboard-response","video-keyboard-response",60,NA,"1",1,1,NA,1
"58","2069-f837e012-1ed5-4fea-93fd-2a793518267b","5fd13e949916af6a5522b1ff",NA,NA,"depictive",30,"BAAB","intervention","pulleys_2_BAAB_30",NA,"0.0-29.0","sanitycheck3",1,1607548564519,6,"intervention",NA,"sona","stim/pulleys_2_annotations_reduced.png",TRUE,10065,"https://causaldraw.s3.amazonaws.com/pulleys_2_BAAB_30.mp4","stim/gears_1_annotations_edited.png",NA,1607548554454,1607548522568,1136354,"pulleys_2","pulleys","2",3,NA,31,"video-keyboard-response","video-keyboard-response",60,NA,"1",1,1,NA,1
"59","2069-f837e012-1ed5-4fea-93fd-2a793518267b","5fd13eb79916af6a5522b200",NA,NA,"depictive",30,"BAAB","intervention","gears_1_BAAB_30",NA,"0.0-30.0","sanitycheck3",4,1607548599655,6,"intervention",NA,"sona","stim/gears_1_annotations_reduced.png",TRUE,1789,"https://causaldraw.s3.amazonaws.com/gears_1_BAAB_30.mp4","stim/gears_1_annotations_edited.png",NA,1607548597866,1607548565529,1171490,"gears_1","gears","1",4,NA,32,"video-keyboard-response","video-keyboard-response",60,NA,"4",1,1,NA,4
"60","2069-f837e012-1ed5-4fea-93fd-2a793518267b","5fd13f6f9916af6a5522b201",NA,NA,"explanatory",30,"ABBA","intervention","levers_1_ABBA_30",NA,"0.0-31.0","sanitycheck3",4,1607548783636,6,"intervention",NA,"sona","stim/levers_1_annotations_reduced.png",TRUE,151267,"https://causaldraw.s3.amazonaws.com/levers_1_ABBA_30.mp4","stim/gears_1_annotations_edited.png",NA,1607548632369,1607548600662,1355471,"levers_1","levers","1",5,NA,33,"video-keyboard-response","video-keyboard-response",60,NA,"4",1,1,NA,4
"61","2171-2d3f051e-bf54-4772-ae9e-45cddcba743c","5fd07e429916af6a5522a9c6",NA,NA,"explanatory",30,"ABBA","intervention","pulleys_2_ABBA_30",NA,"0.0-28.0","sanitycheck3",1,1607499330390,6,"intervention",NA,"sona","stim/pulleys_2_annotations_reduced.png",TRUE,6236,"https://causaldraw.s3.amazonaws.com/pulleys_2_ABBA_30.mp4","stim/gears_1_annotations_edited.png",NA,1607499324154,1607499292298,657484,"pulleys_2","pulleys","2",2,NA,28,"video-keyboard-response","video-keyboard-response",22,NA,"1",1,1,NA,1
"62","2171-2d3f051e-bf54-4772-ae9e-45cddcba743c","5fd07e889916af6a5522a9ca",NA,NA,"explanatory",30,"ABBA","intervention","gears_2_ABBA_30",NA,"0.0-30.0","sanitycheck3",4,1607499400567,6,"intervention",NA,"sona","stim/gears_2_annotations_reduced.png",TRUE,2981,"https://causaldraw.s3.amazonaws.com/gears_2_ABBA_30.mp4","stim/gears_1_annotations_edited.png",NA,1607499397586,1607499365026,727662,"gears_2","gears","2",4,NA,30,"video-keyboard-response","video-keyboard-response",22,NA,"3",0,1,NA,3
"63","2171-2d3f051e-bf54-4772-ae9e-45cddcba743c","5fd07e1b9916af6a5522a9c4",NA,NA,"depictive",30,"BAAB","intervention","gears_1_BAAB_30",NA,"0.0-27.0","sanitycheck3",4,1607499291292,6,"intervention",NA,"sona","stim/gears_1_annotations_reduced.png",TRUE,1997,"https://causaldraw.s3.amazonaws.com/gears_1_BAAB_30.mp4","stim/gears_1_annotations_edited.png",NA,1607499289295,1607499257276,618387,"gears_1","gears","1",1,NA,27,"video-keyboard-response","video-keyboard-response",22,NA,"4",1,1,NA,4
"64","2171-2d3f051e-bf54-4772-ae9e-45cddcba743c","5fd07df89916af6a5522a9c2",NA,NA,"depictive",30,"ABBA","intervention","pulleys_1_ABBA_30",NA,"0.0-26.0","sanitycheck3",1,1607499256270,6,"intervention",NA,"sona","stim/pulleys_1_annotations_reduced.png",TRUE,1664,"https://causaldraw.s3.amazonaws.com/pulleys_1_ABBA_30.mp4","stim/gears_1_annotations_edited.png",NA,1607499254606,1607499222988,583365,"pulleys_1","pulleys","1",0,NA,26,"video-keyboard-response","video-keyboard-response",22,NA,"1",1,1,NA,1
"65","2171-2d3f051e-bf54-4772-ae9e-45cddcba743c","5fd07eab9916af6a5522a9cc",NA,NA,"depictive",30,"BAAB","intervention","levers_2_BAAB_30",NA,"0.0-31.0","sanitycheck3",2,1607499435821,6,"intervention",NA,"sona","stim/levers_2_annotations_reduced.png",TRUE,1754,"https://causaldraw.s3.amazonaws.com/levers_2_BAAB_30.mp4","stim/gears_1_annotations_edited.png",NA,1607499434067,1607499401575,762916,"levers_2","levers","2",5,NA,31,"video-keyboard-response","video-keyboard-response",22,NA,"2",1,1,NA,2
"66","2171-2d3f051e-bf54-4772-ae9e-45cddcba743c","5fd07e649916af6a5522a9c8",NA,NA,"explanatory",30,"BAAB","intervention","levers_1_BAAB_30",NA,"0.0-29.0","sanitycheck3",4,1607499364017,6,"intervention",NA,"sona","stim/levers_1_annotations_reduced.png",TRUE,1227,"https://causaldraw.s3.amazonaws.com/levers_1_BAAB_30.mp4","stim/gears_1_annotations_edited.png",NA,1607499362790,1607499331397,691112,"levers_1","levers","1",3,NA,29,"video-keyboard-response","video-keyboard-response",22,NA,"4",1,1,NA,4
"67","2221-54234c51-24d0-4026-9366-ac5257832987","5fd138799916af6a5522b185",NA,NA,"depictive",30,"BAAB","intervention","pulleys_2_BAAB_30",NA,"0.0-30.0","sanitycheck3",2,1607547001654,6,"intervention",NA,"sona","stim/pulleys_2_annotations_reduced.png",TRUE,2622,"https://causaldraw.s3.amazonaws.com/pulleys_2_BAAB_30.mp4","stim/gears_1_annotations_edited.png",NA,1607546999032,1607546967221,410258,"pulleys_2","pulleys","2",4,NA,31,"video-keyboard-response","video-keyboard-response",41,NA,"1",0,1,NA,1
"68","2221-54234c51-24d0-4026-9366-ac5257832987","5fd138119916af6a5522b175",NA,NA,"explanatory",30,"ABBA","intervention","pulleys_1_ABBA_30",NA,"0.0-27.0","sanitycheck3",1,1607546897634,6,"intervention",NA,"sona","stim/pulleys_1_annotations_reduced.png",TRUE,1345,"https://causaldraw.s3.amazonaws.com/pulleys_1_ABBA_30.mp4","stim/gears_1_annotations_edited.png",NA,1607546896289,1607546864826,306239,"pulleys_1","pulleys","1",1,NA,28,"video-keyboard-response","video-keyboard-response",41,NA,"1",1,1,NA,1
"69","2221-54234c51-24d0-4026-9366-ac5257832987","5fd138349916af6a5522b17a",NA,NA,"explanatory",30,"BAAB","intervention","levers_2_BAAB_30",NA,"0.0-28.0","sanitycheck3",2,1607546932507,6,"intervention",NA,"sona","stim/levers_2_annotations_reduced.png",TRUE,1510,"https://causaldraw.s3.amazonaws.com/levers_2_BAAB_30.mp4","stim/gears_1_annotations_edited.png",NA,1607546930997,1607546898638,341111,"levers_2","levers","2",2,NA,29,"video-keyboard-response","video-keyboard-response",41,NA,"2",1,1,NA,2
"70","2221-54234c51-24d0-4026-9366-ac5257832987","5fd138569916af6a5522b17d",NA,NA,"depictive",30,"ABBA","intervention","levers_1_ABBA_30",NA,"0.0-29.0","sanitycheck3",4,1607546966214,6,"intervention",NA,"sona","stim/levers_1_annotations_reduced.png",TRUE,1061,"https://causaldraw.s3.amazonaws.com/levers_1_ABBA_30.mp4","stim/gears_1_annotations_edited.png",NA,1607546965153,1607546933515,374819,"levers_1","levers","1",3,NA,30,"video-keyboard-response","video-keyboard-response",41,NA,"4",1,1,NA,4
"71","2221-54234c51-24d0-4026-9366-ac5257832987","5fd137ef9916af6a5522b170",NA,NA,"depictive",30,"ABBA","intervention","gears_2_ABBA_30",NA,"0.0-26.0","sanitycheck3",3,1607546863822,6,"intervention",NA,"sona","stim/gears_2_annotations_reduced.png",TRUE,2202,"https://causaldraw.s3.amazonaws.com/gears_2_ABBA_30.mp4","stim/gears_1_annotations_edited.png",NA,1607546861620,1607546829239,272426,"gears_2","gears","2",0,NA,27,"video-keyboard-response","video-keyboard-response",41,NA,"3",1,1,NA,3
"72","2221-54234c51-24d0-4026-9366-ac5257832987","5fd1389b9916af6a5522b193",NA,NA,"explanatory",30,"BAAB","intervention","gears_1_BAAB_30",NA,"0.0-31.0","sanitycheck3",4,1607547035834,6,"intervention",NA,"sona","stim/gears_1_annotations_reduced.png",TRUE,1303,"https://causaldraw.s3.amazonaws.com/gears_1_BAAB_30.mp4","stim/gears_1_annotations_edited.png",NA,1607547034531,1607547002660,444438,"gears_1","gears","1",5,NA,32,"video-keyboard-response","video-keyboard-response",41,NA,"4",1,1,NA,4
"73","2262-22a794a5-b107-4d81-9d55-0cbd74b9cb37","5fd120c29916af6a5522aeba",NA,NA,"depictive",30,"ABBA","intervention","levers_1_ABBA_30",NA,"0.0-29.0","sanitycheck3",3,1607540930755,6,"intervention",NA,"sona","stim/levers_1_annotations_reduced.png",TRUE,1243,"https://causaldraw.s3.amazonaws.com/levers_1_ABBA_30.mp4","stim/gears_1_annotations_edited.png",NA,1607540929512,1607540897707,469245,"levers_1","levers","1",3,NA,29,"video-keyboard-response","video-keyboard-response",115,NA,"4",0,0,NA,4
"74","2262-22a794a5-b107-4d81-9d55-0cbd74b9cb37","5fd1205b9916af6a5522aeb7",NA,NA,"depictive",30,"BAAB","intervention","pulleys_1_BAAB_30",NA,"0.0-26.0","sanitycheck3",3,1607540827121,6,"intervention",NA,"sona","stim/pulleys_1_annotations_reduced.png",TRUE,19346,"https://causaldraw.s3.amazonaws.com/pulleys_1_BAAB_30.mp4","stim/gears_1_annotations_edited.png",NA,1607540807775,1607540775038,365611,"pulleys_1","pulleys","1",0,NA,26,"video-keyboard-response","video-keyboard-response",115,NA,"1",0,1,NA,1
"75","2262-22a794a5-b107-4d81-9d55-0cbd74b9cb37","5fd121089916af6a5522aebc",NA,NA,"depictive",30,"BAAB","intervention","gears_2_BAAB_30",NA,"0.0-31.0","sanitycheck3",4,1607541000757,6,"intervention",NA,"sona","stim/gears_2_annotations_reduced.png",TRUE,2948,"https://causaldraw.s3.amazonaws.com/gears_2_BAAB_30.mp4","stim/gears_1_annotations_edited.png",NA,1607540997809,1607540965887,539246,"gears_2","gears","2",5,NA,31,"video-keyboard-response","video-keyboard-response",115,NA,"3",0,1,NA,3
"76","2262-22a794a5-b107-4d81-9d55-0cbd74b9cb37","5fd120a09916af6a5522aeb9",NA,NA,"explanatory",30,"ABBA","intervention","levers_2_ABBA_30",NA,"0.0-28.0","sanitycheck3",3,1607540896701,6,"intervention",NA,"sona","stim/levers_2_annotations_reduced.png",TRUE,2600,"https://causaldraw.s3.amazonaws.com/levers_2_ABBA_30.mp4","stim/gears_1_annotations_edited.png",NA,1607540894101,1607540862204,435191,"levers_2","levers","2",2,NA,28,"video-keyboard-response","video-keyboard-response",115,NA,"2",0,0,NA,2
"77","2262-22a794a5-b107-4d81-9d55-0cbd74b9cb37","5fd1207d9916af6a5522aeb8",NA,NA,"explanatory",30,"BAAB","intervention","pulleys_2_BAAB_30",NA,"0.0-27.0","sanitycheck3",2,1607540861200,6,"intervention",NA,"sona","stim/pulleys_2_annotations_reduced.png",TRUE,1213,"https://causaldraw.s3.amazonaws.com/pulleys_2_BAAB_30.mp4","stim/gears_1_annotations_edited.png",NA,1607540859987,1607540828126,399689,"pulleys_2","pulleys","2",1,NA,27,"video-keyboard-response","video-keyboard-response",115,NA,"1",0,1,NA,1
"78","2262-22a794a5-b107-4d81-9d55-0cbd74b9cb37","5fd120e49916af6a5522aebb",NA,NA,"explanatory",30,"ABBA","intervention","gears_1_ABBA_30",NA,"0.0-30.0","sanitycheck3",4,1607540964879,6,"intervention",NA,"sona","stim/gears_1_annotations_reduced.png",TRUE,1671,"https://causaldraw.s3.amazonaws.com/gears_1_ABBA_30.mp4","stim/gears_1_annotations_edited.png",NA,1607540963208,1607540931760,503368,"gears_1","gears","1",4,NA,30,"video-keyboard-response","video-keyboard-response",115,NA,"4",1,1,NA,4
"79","2345-0e6e0e55-b35a-4ea0-9910-8f3d7bccabbf","5fd0be629916af6a5522acd4",NA,NA,"explanatory",30,"ABBA","intervention","pulleys_1_ABBA_30",NA,"0.0-29.0","sanitycheck3",1,1607515746174,6,"intervention",NA,"sona","stim/pulleys_1_annotations_reduced.png",TRUE,2100,"https://causaldraw.s3.amazonaws.com/pulleys_1_ABBA_30.mp4","stim/gears_1_annotations_edited.png",NA,1607515744074,1607515712296,316646,"pulleys_1","pulleys","1",3,NA,29,"video-keyboard-response","video-keyboard-response",157,NA,"1",1,1,NA,1
"80","2345-0e6e0e55-b35a-4ea0-9910-8f3d7bccabbf","5fd0be3f9916af6a5522acd3",NA,NA,"depictive",30,"ABBA","intervention","gears_1_ABBA_30",NA,"0.0-28.0","sanitycheck3",4,1607515711287,6,"intervention",NA,"sona","stim/gears_1_annotations_reduced.png",TRUE,876,"https://causaldraw.s3.amazonaws.com/gears_1_ABBA_30.mp4","stim/gears_1_annotations_edited.png",NA,1607515710411,1607515678783,281760,"gears_1","gears","1",2,NA,28,"video-keyboard-response","video-keyboard-response",157,NA,"4",1,1,NA,4
"81","2345-0e6e0e55-b35a-4ea0-9910-8f3d7bccabbf","5fd0be899916af6a5522acd5",NA,NA,"depictive",30,"BAAB","intervention","pulleys_2_BAAB_30",NA,"0.0-30.0","sanitycheck3",2,1607515785172,6,"intervention",NA,"sona","stim/pulleys_2_annotations_reduced.png",TRUE,5900,"https://causaldraw.s3.amazonaws.com/pulleys_2_BAAB_30.mp4","stim/gears_1_annotations_edited.png",NA,1607515779272,1607515747181,355645,"pulleys_2","pulleys","2",4,NA,30,"video-keyboard-response","video-keyboard-response",157,NA,"1",0,1,NA,1
"82","2345-0e6e0e55-b35a-4ea0-9910-8f3d7bccabbf","5fd0be1d9916af6a5522acd2",NA,NA,"explanatory",30,"BAAB","intervention","gears_2_BAAB_30",NA,"0.0-27.0","sanitycheck3",3,1607515677777,6,"intervention",NA,"sona","stim/gears_2_annotations_reduced.png",TRUE,1285,"https://causaldraw.s3.amazonaws.com/gears_2_BAAB_30.mp4","stim/gears_1_annotations_edited.png",NA,1607515676492,1607515644337,248250,"gears_2","gears","2",1,NA,27,"video-keyboard-response","video-keyboard-response",157,NA,"3",1,1,NA,3
"83","2345-0e6e0e55-b35a-4ea0-9910-8f3d7bccabbf","5fd0beac9916af6a5522acd6",NA,NA,"explanatory",30,"ABBA","intervention","levers_2_ABBA_30",NA,"0.0-31.0","sanitycheck3",2,1607515820446,6,"intervention",NA,"sona","stim/levers_2_annotations_reduced.png",TRUE,2177,"https://causaldraw.s3.amazonaws.com/levers_2_ABBA_30.mp4","stim/gears_1_annotations_edited.png",NA,1607515818269,1607515786176,390918,"levers_2","levers","2",5,NA,31,"video-keyboard-response","video-keyboard-response",157,NA,"2",1,1,NA,2
"84","2345-0e6e0e55-b35a-4ea0-9910-8f3d7bccabbf","5fd0bdfb9916af6a5522acd1",NA,NA,"depictive",30,"BAAB","intervention","levers_1_BAAB_30",NA,"0.0-26.0","sanitycheck3",4,1607515643330,6,"intervention",NA,"sona","stim/levers_1_annotations_reduced.png",TRUE,4404,"https://causaldraw.s3.amazonaws.com/levers_1_BAAB_30.mp4","stim/gears_1_annotations_edited.png",NA,1607515638926,1607515607327,213802,"levers_1","levers","1",0,NA,26,"video-keyboard-response","video-keyboard-response",157,NA,"4",1,1,NA,4
"85","2401-c1c6e7b7-8b3d-4240-b8ed-5094b876e088","5fd07e169916af6a5522a9c3",NA,NA,"explanatory",30,"ABBA","intervention","levers_1_ABBA_30",NA,"0.0-27.0","sanitycheck3",4,1607499286977,6,"intervention",NA,"sona","stim/levers_1_annotations_reduced.png",TRUE,916,"https://causaldraw.s3.amazonaws.com/levers_1_ABBA_30.mp4","stim/gears_1_annotations_edited.png",NA,1607499286061,1607499254327,380253,"levers_1","levers","1",1,NA,28,"video-keyboard-response","video-keyboard-response",26,NA,"4",1,1,NA,4
"86","2401-c1c6e7b7-8b3d-4240-b8ed-5094b876e088","5fd07e379916af6a5522a9c5",NA,NA,"explanatory",30,"ABBA","intervention","gears_1_ABBA_30",NA,"0.0-28.0","sanitycheck3",4,1607499319963,6,"intervention",NA,"sona","stim/gears_1_annotations_reduced.png",TRUE,482,"https://causaldraw.s3.amazonaws.com/gears_1_ABBA_30.mp4","stim/gears_1_annotations_edited.png",NA,1607499319481,1607499287987,413240,"gears_1","gears","1",2,NA,29,"video-keyboard-response","video-keyboard-response",26,NA,"4",1,1,NA,4
"87","2401-c1c6e7b7-8b3d-4240-b8ed-5094b876e088","5fd07e7c9916af6a5522a9c9",NA,NA,"depictive",30,"ABBA","intervention","gears_2_ABBA_30",NA,"0.0-30.0","sanitycheck3",3,1607499388490,6,"intervention",NA,"sona","stim/gears_2_annotations_reduced.png",TRUE,830,"https://causaldraw.s3.amazonaws.com/gears_2_ABBA_30.mp4","stim/gears_1_annotations_edited.png",NA,1607499387660,1607499355207,481767,"gears_2","gears","2",4,NA,31,"video-keyboard-response","video-keyboard-response",26,NA,"3",1,1,NA,3
"88","2401-c1c6e7b7-8b3d-4240-b8ed-5094b876e088","5fd07e5a9916af6a5522a9c7",NA,NA,"depictive",30,"BAAB","intervention","pulleys_1_BAAB_30",NA,"0.0-29.0","sanitycheck3",1,1607499354194,6,"intervention",NA,"sona","stim/pulleys_1_annotations_reduced.png",TRUE,793,"https://causaldraw.s3.amazonaws.com/pulleys_1_BAAB_30.mp4","stim/gears_1_annotations_edited.png",NA,1607499353401,1607499320972,447471,"pulleys_1","pulleys","1",3,NA,30,"video-keyboard-response","video-keyboard-response",26,NA,"1",1,1,NA,1
"89","2401-c1c6e7b7-8b3d-4240-b8ed-5094b876e088","5fd07df59916af6a5522a9c1",NA,NA,"explanatory",30,"BAAB","intervention","pulleys_2_BAAB_30",NA,"0.0-26.0","sanitycheck3",1,1607499253311,6,"intervention",NA,"sona","stim/pulleys_2_annotations_reduced.png",TRUE,6370,"https://causaldraw.s3.amazonaws.com/pulleys_2_BAAB_30.mp4","stim/gears_1_annotations_edited.png",NA,1607499246941,1607499215034,346588,"pulleys_2","pulleys","2",0,NA,27,"video-keyboard-response","video-keyboard-response",26,NA,"1",1,1,NA,1
"90","2401-c1c6e7b7-8b3d-4240-b8ed-5094b876e088","5fd07ea19916af6a5522a9cb",NA,NA,"depictive",30,"BAAB","intervention","levers_2_BAAB_30",NA,"0.0-31.0","sanitycheck3",4,1607499425685,6,"intervention",NA,"sona","stim/levers_2_annotations_reduced.png",TRUE,3685,"https://causaldraw.s3.amazonaws.com/levers_2_BAAB_30.mp4","stim/gears_1_annotations_edited.png",NA,1607499422000,1607499389502,518962,"levers_2","levers","2",5,NA,32,"video-keyboard-response","video-keyboard-response",26,NA,"2",0,1,NA,2
"91","2467-46d32da2-478a-4e19-b913-bb49725ef974","5fd0b6b99916af6a5522aca7",NA,NA,"depictive",30,"ABBA","intervention","levers_1_ABBA_30",NA,"0.0-28.0","sanitycheck3",4,1607513784614,6,"intervention",NA,"sona","stim/levers_1_annotations_reduced.png",TRUE,901,"https://causaldraw.s3.amazonaws.com/levers_1_ABBA_30.mp4","stim/gears_1_annotations_edited.png",NA,1607513783713,1607513752162,502438,"levers_1","levers","1",2,NA,28,"video-keyboard-response","video-keyboard-response",147,NA,"4",1,1,NA,4
"92","2467-46d32da2-478a-4e19-b913-bb49725ef974","5fd0b6fe9916af6a5522aca9",NA,NA,"explanatory",30,"ABBA","intervention","pulleys_2_ABBA_30",NA,"0.0-30.0","sanitycheck3",1,1607513853234,6,"intervention",NA,"sona","stim/pulleys_2_annotations_reduced.png",TRUE,2160,"https://causaldraw.s3.amazonaws.com/pulleys_2_ABBA_30.mp4","stim/gears_1_annotations_edited.png",NA,1607513851074,1607513819430,571058,"pulleys_2","pulleys","2",4,NA,30,"video-keyboard-response","video-keyboard-response",147,NA,"1",1,1,NA,1
"93","2467-46d32da2-478a-4e19-b913-bb49725ef974","5fd0b6759916af6a5522aca5",NA,NA,"explanatory",30,"BAAB","intervention","gears_1_BAAB_30",NA,"0.0-26.0","sanitycheck3",2,1607513717047,6,"intervention",NA,"sona","stim/gears_1_annotations_reduced.png",TRUE,1314,"https://causaldraw.s3.amazonaws.com/gears_1_BAAB_30.mp4","stim/gears_1_annotations_edited.png",NA,1607513715733,1607513684006,434870,"gears_1","gears","1",0,NA,26,"video-keyboard-response","video-keyboard-response",147,NA,"4",0,0,NA,4
"94","2467-46d32da2-478a-4e19-b913-bb49725ef974","5fd0b6db9916af6a5522aca8",NA,NA,"depictive",30,"ABBA","intervention","gears_2_ABBA_30",NA,"0.0-29.0","sanitycheck3",4,1607513818427,6,"intervention",NA,"sona","stim/gears_2_annotations_reduced.png",TRUE,494,"https://causaldraw.s3.amazonaws.com/gears_2_ABBA_30.mp4","stim/gears_1_annotations_edited.png",NA,1607513817933,1607513785617,536250,"gears_2","gears","2",3,NA,29,"video-keyboard-response","video-keyboard-response",147,NA,"3",0,1,NA,3
"95","2467-46d32da2-478a-4e19-b913-bb49725ef974","5fd0b6989916af6a5522aca6",NA,NA,"explanatory",30,"BAAB","intervention","levers_2_BAAB_30",NA,"0.0-27.0","sanitycheck3",2,1607513751158,6,"intervention",NA,"sona","stim/levers_2_annotations_reduced.png",TRUE,804,"https://causaldraw.s3.amazonaws.com/levers_2_BAAB_30.mp4","stim/gears_1_annotations_edited.png",NA,1607513750354,1607513718049,468982,"levers_2","levers","2",1,NA,27,"video-keyboard-response","video-keyboard-response",147,NA,"2",1,1,NA,2
"96","2467-46d32da2-478a-4e19-b913-bb49725ef974","5fd0b7209916af6a5522acaa",NA,NA,"depictive",30,"BAAB","intervention","pulleys_1_BAAB_30",NA,"0.0-31.0","sanitycheck3",1,1607513887630,6,"intervention",NA,"sona","stim/pulleys_1_annotations_reduced.png",TRUE,1175,"https://causaldraw.s3.amazonaws.com/pulleys_1_BAAB_30.mp4","stim/gears_1_annotations_edited.png",NA,1607513886455,1607513854237,605454,"pulleys_1","pulleys","1",5,NA,31,"video-keyboard-response","video-keyboard-response",147,NA,"1",1,1,NA,1
"97","2668-a1fb6980-810a-48f8-b01d-01360648a9a1","5fd112b89916af6a5522ae45",NA,NA,"depictive",30,"ABBA","intervention","levers_1_ABBA_30",NA,"0.0-31.0","sanitycheck3",4,1607537336642,6,"intervention",NA,"sona","stim/levers_1_annotations_reduced.png",TRUE,23927,"https://causaldraw.s3.amazonaws.com/levers_1_ABBA_30.mp4","stim/gears_1_annotations_edited.png",NA,1607537312715,1607537281169,500120,"levers_1","levers","1",5,NA,33,"video-keyboard-response","video-keyboard-response",73,NA,"4",1,1,NA,4
"98","2668-a1fb6980-810a-48f8-b01d-01360648a9a1","5fd112809916af6a5522ae38",NA,NA,"depictive",30,"ABBA","intervention","pulleys_2_ABBA_30",NA,"0.0-30.0","sanitycheck3",1,1607537280161,6,"intervention",NA,"sona","stim/pulleys_2_annotations_reduced.png",TRUE,6108,"https://causaldraw.s3.amazonaws.com/pulleys_2_ABBA_30.mp4","stim/gears_1_annotations_edited.png",NA,1607537274053,1607537242238,443639,"pulleys_2","pulleys","2",4,NA,32,"video-keyboard-response","video-keyboard-response",73,NA,"1",1,1,NA,1
"99","2668-a1fb6980-810a-48f8-b01d-01360648a9a1","5fd112599916af6a5522ae37",NA,NA,"depictive",30,"BAAB","intervention","gears_2_BAAB_30",NA,"0.0-29.0","sanitycheck3",3,1607537241233,6,"intervention",NA,"sona","stim/gears_2_annotations_reduced.png",TRUE,1708,"https://causaldraw.s3.amazonaws.com/gears_2_BAAB_30.mp4","stim/gears_1_annotations_edited.png",NA,1607537239525,1607537207666,404712,"gears_2","gears","2",3,NA,31,"video-keyboard-response","video-keyboard-response",73,NA,"3",1,1,NA,3
"100","2668-a1fb6980-810a-48f8-b01d-01360648a9a1","5fd112149916af6a5522ae35",NA,NA,"explanatory",30,"ABBA","intervention","levers_2_ABBA_30",NA,"0.0-27.0","sanitycheck3",2,1607537172746,6,"intervention",NA,"sona","stim/levers_2_annotations_reduced.png",TRUE,2278,"https://causaldraw.s3.amazonaws.com/levers_2_ABBA_30.mp4","stim/gears_1_annotations_edited.png",NA,1607537170468,1607537138634,336224,"levers_2","levers","2",1,NA,29,"video-keyboard-response","video-keyboard-response",73,NA,"2",1,1,NA,2
"101","2668-a1fb6980-810a-48f8-b01d-01360648a9a1","5fd112369916af6a5522ae36",NA,NA,"explanatory",30,"BAAB","intervention","gears_1_BAAB_30",NA,"0.0-28.0","sanitycheck3",4,1607537206658,6,"intervention",NA,"sona","stim/gears_1_annotations_reduced.png",TRUE,988,"https://causaldraw.s3.amazonaws.com/gears_1_BAAB_30.mp4","stim/gears_1_annotations_edited.png",NA,1607537205670,1607537173754,370137,"gears_1","gears","1",2,NA,30,"video-keyboard-response","video-keyboard-response",73,NA,"4",1,1,NA,4
"102","2668-a1fb6980-810a-48f8-b01d-01360648a9a1","5fd111f19916af6a5522ae33",NA,NA,"explanatory",30,"BAAB","intervention","pulleys_1_BAAB_30",NA,"0.0-26.0","sanitycheck3",1,1607537137624,6,"intervention",NA,"sona","stim/pulleys_1_annotations_reduced.png",TRUE,2753,"https://causaldraw.s3.amazonaws.com/pulleys_1_BAAB_30.mp4","stim/gears_1_annotations_edited.png",NA,1607537134871,1607537102229,301103,"pulleys_1","pulleys","1",0,NA,28,"video-keyboard-response","video-keyboard-response",73,NA,"1",1,1,NA,1
"103","2755-797cf306-8696-4c42-b5ef-20b24472b23f","5fd080d99916af6a5522a9f0",NA,NA,"depictive",30,"BAAB","intervention","pulleys_2_BAAB_30",NA,"0.0-29.0","sanitycheck3",1,1607499992260,6,"intervention",NA,"sona","stim/pulleys_2_annotations_reduced.png",TRUE,3087,"https://causaldraw.s3.amazonaws.com/pulleys_2_BAAB_30.mp4","stim/gears_1_annotations_edited.png",NA,1607499989173,1607499957092,497196,"pulleys_2","pulleys","2",3,NA,29,"video-keyboard-response","video-keyboard-response",29,NA,"1",1,1,NA,1
"104","2755-797cf306-8696-4c42-b5ef-20b24472b23f","5fd081249916af6a5522a9f4",NA,NA,"explanatory",30,"BAAB","intervention","levers_2_BAAB_30",NA,"0.0-31.0","sanitycheck3",2,1607500067591,6,"intervention",NA,"sona","stim/levers_2_annotations_reduced.png",TRUE,5343,"https://causaldraw.s3.amazonaws.com/levers_2_BAAB_30.mp4","stim/gears_1_annotations_edited.png",NA,1607500062248,1607500029162,572527,"levers_2","levers","2",5,NA,31,"video-keyboard-response","video-keyboard-response",29,NA,"2",1,1,NA,2
"105","2755-797cf306-8696-4c42-b5ef-20b24472b23f","5fd0806e9916af6a5522a9ed",NA,NA,"explanatory",30,"ABBA","intervention","gears_2_ABBA_30",NA,"0.0-26.0","sanitycheck3",3,1607499885470,6,"intervention",NA,"sona","stim/gears_2_annotations_reduced.png",TRUE,2458,"https://causaldraw.s3.amazonaws.com/gears_2_ABBA_30.mp4","stim/gears_1_annotations_edited.png",NA,1607499883012,1607499849959,390407,"gears_2","gears","2",0,NA,26,"video-keyboard-response","video-keyboard-response",29,NA,"3",1,1,NA,3
"106","2755-797cf306-8696-4c42-b5ef-20b24472b23f","5fd080fc9916af6a5522a9f2",NA,NA,"explanatory",30,"BAAB","intervention","pulleys_1_BAAB_30",NA,"0.0-30.0","sanitycheck3",1,1607500028150,6,"intervention",NA,"sona","stim/pulleys_1_annotations_reduced.png",TRUE,2202,"https://causaldraw.s3.amazonaws.com/pulleys_1_BAAB_30.mp4","stim/gears_1_annotations_edited.png",NA,1607500025948,1607499993270,533086,"pulleys_1","pulleys","1",4,NA,30,"video-keyboard-response","video-keyboard-response",29,NA,"1",1,1,NA,1
"107","2755-797cf306-8696-4c42-b5ef-20b24472b23f","5fd080919916af6a5522a9ee",NA,NA,"depictive",30,"ABBA","intervention","levers_1_ABBA_30",NA,"0.0-27.0","sanitycheck3",4,1607499921142,6,"intervention",NA,"sona","stim/levers_1_annotations_reduced.png",TRUE,2649,"https://causaldraw.s3.amazonaws.com/levers_1_ABBA_30.mp4","stim/gears_1_annotations_edited.png",NA,1607499918493,1607499886481,426079,"levers_1","levers","1",1,NA,27,"video-keyboard-response","video-keyboard-response",29,NA,"4",1,1,NA,4
"108","2755-797cf306-8696-4c42-b5ef-20b24472b23f","5fd080b49916af6a5522a9ef",NA,NA,"depictive",30,"ABBA","intervention","gears_1_ABBA_30",NA,"0.0-28.0","sanitycheck3",4,1607499956082,6,"intervention",NA,"sona","stim/gears_1_annotations_reduced.png",TRUE,2369,"https://causaldraw.s3.amazonaws.com/gears_1_ABBA_30.mp4","stim/gears_1_annotations_edited.png",NA,1607499953713,1607499922159,461019,"gears_1","gears","1",2,NA,28,"video-keyboard-response","video-keyboard-response",29,NA,"4",1,1,NA,4
"109","2812-911df139-d084-45b5-b491-351f83e7eb79","5fd0d8df9916af6a5522ad2d",NA,NA,"explanatory",30,"BAAB","intervention","gears_1_BAAB_30",NA,"0.0-29.0","sanitycheck3",4,1607522527019,6,"intervention",NA,"sona","stim/gears_1_annotations_reduced.png",TRUE,2868,"https://causaldraw.s3.amazonaws.com/gears_1_BAAB_30.mp4","stim/gears_1_annotations_edited.png",NA,1607522524151,1607522491628,450171,"gears_1","gears","1",3,NA,29,"video-keyboard-response","video-keyboard-response",10,NA,"4",1,1,NA,4
"110","2812-911df139-d084-45b5-b491-351f83e7eb79","5fd0d9019916af6a5522ad2e",NA,NA,"explanatory",30,"BAAB","intervention","levers_1_BAAB_30",NA,"0.0-30.0","sanitycheck3",4,1607522561420,6,"intervention",NA,"sona","stim/levers_1_annotations_reduced.png",TRUE,1809,"https://causaldraw.s3.amazonaws.com/levers_1_BAAB_30.mp4","stim/gears_1_annotations_edited.png",NA,1607522559611,1607522528027,484572,"levers_1","levers","1",4,NA,30,"video-keyboard-response","video-keyboard-response",10,NA,"4",1,1,NA,4
"111","2812-911df139-d084-45b5-b491-351f83e7eb79","5fd0d9269916af6a5522ad2f",NA,NA,"explanatory",30,"ABBA","intervention","pulleys_2_ABBA_30",NA,"0.0-31.0","sanitycheck3",2,1607522598511,6,"intervention",NA,"sona","stim/pulleys_2_annotations_reduced.png",TRUE,3790,"https://causaldraw.s3.amazonaws.com/pulleys_2_ABBA_30.mp4","stim/gears_1_annotations_edited.png",NA,1607522594721,1607522562428,521663,"pulleys_2","pulleys","2",5,NA,31,"video-keyboard-response","video-keyboard-response",10,NA,"1",0,1,NA,1
"112","2812-911df139-d084-45b5-b491-351f83e7eb79","5fd0d8749916af6a5522ad29",NA,NA,"depictive",30,"ABBA","intervention","gears_2_ABBA_30",NA,"0.0-26.0","sanitycheck3",3,1607522420328,6,"intervention",NA,"sona","stim/gears_2_annotations_reduced.png",TRUE,2084,"https://causaldraw.s3.amazonaws.com/gears_2_ABBA_30.mp4","stim/gears_1_annotations_edited.png",NA,1607522418244,1607522385331,343480,"gears_2","gears","2",0,NA,26,"video-keyboard-response","video-keyboard-response",10,NA,"3",1,1,NA,3
"113","2812-911df139-d084-45b5-b491-351f83e7eb79","5fd0d8ba9916af6a5522ad2b",NA,NA,"depictive",30,"BAAB","intervention","pulleys_1_BAAB_30",NA,"0.0-28.0","sanitycheck3",1,1607522490618,6,"intervention",NA,"sona","stim/pulleys_1_annotations_reduced.png",TRUE,2271,"https://causaldraw.s3.amazonaws.com/pulleys_1_BAAB_30.mp4","stim/gears_1_annotations_edited.png",NA,1607522488347,1607522455811,413771,"pulleys_1","pulleys","1",2,NA,28,"video-keyboard-response","video-keyboard-response",10,NA,"1",1,1,NA,1
"114","2812-911df139-d084-45b5-b491-351f83e7eb79","5fd0d8969916af6a5522ad2a",NA,NA,"depictive",30,"ABBA","intervention","levers_2_ABBA_30",NA,"0.0-27.0","sanitycheck3",2,1607522454803,6,"intervention",NA,"sona","stim/levers_2_annotations_reduced.png",TRUE,1566,"https://causaldraw.s3.amazonaws.com/levers_2_ABBA_30.mp4","stim/gears_1_annotations_edited.png",NA,1607522453237,1607522421334,377955,"levers_2","levers","2",1,NA,27,"video-keyboard-response","video-keyboard-response",10,NA,"2",1,1,NA,2
"115","2865-0095daf3-a6ad-4bb7-9d8d-2bc047a1f900","5fd1369c9916af6a5522b111",NA,NA,"explanatory",30,"BAAB","intervention","gears_1_BAAB_30",NA,"0.0-31.0","sanitycheck3",4,1607546524516,6,"intervention",NA,"sona","stim/gears_1_annotations_reduced.png",TRUE,3537,"https://causaldraw.s3.amazonaws.com/gears_1_BAAB_30.mp4","stim/gears_1_annotations_edited.png",NA,1607546520979,1607546488744,626006,"gears_1","gears","1",5,NA,32,"video-keyboard-response","video-keyboard-response",35,NA,"4",1,1,NA,4
"116","2865-0095daf3-a6ad-4bb7-9d8d-2bc047a1f900","5fd135df9916af6a5522b106",NA,NA,"depictive",30,"BAAB","intervention","gears_2_BAAB_30",NA,"0.0-26.0","sanitycheck3",4,1607546335115,6,"intervention",NA,"sona","stim/gears_2_annotations_reduced.png",TRUE,4593,"https://causaldraw.s3.amazonaws.com/gears_2_BAAB_30.mp4","stim/gears_1_annotations_edited.png",NA,1607546330522,1607546298127,436604,"gears_2","gears","2",0,NA,27,"video-keyboard-response","video-keyboard-response",35,NA,"3",0,1,NA,3
"117","2865-0095daf3-a6ad-4bb7-9d8d-2bc047a1f900","5fd136539916af6a5522b10d",NA,NA,"explanatory",30,"ABBA","intervention","pulleys_2_ABBA_30",NA,"0.0-29.0","sanitycheck3",1,1607546451044,6,"intervention",NA,"sona","stim/pulleys_2_annotations_reduced.png",TRUE,7384,"https://causaldraw.s3.amazonaws.com/pulleys_2_ABBA_30.mp4","stim/gears_1_annotations_edited.png",NA,1607546443660,1607546411560,552533,"pulleys_2","pulleys","2",3,NA,30,"video-keyboard-response","video-keyboard-response",35,NA,"1",1,1,NA,1
"118","2865-0095daf3-a6ad-4bb7-9d8d-2bc047a1f900","5fd136779916af6a5522b10f",NA,NA,"explanatory",30,"ABBA","intervention","levers_2_ABBA_30",NA,"0.0-30.0","sanitycheck3",2,1607546487732,6,"intervention",NA,"sona","stim/levers_2_annotations_reduced.png",TRUE,3539,"https://causaldraw.s3.amazonaws.com/levers_2_ABBA_30.mp4","stim/gears_1_annotations_edited.png",NA,1607546484193,1607546452056,589220,"levers_2","levers","2",4,NA,31,"video-keyboard-response","video-keyboard-response",35,NA,"2",1,1,NA,2
"119","2865-0095daf3-a6ad-4bb7-9d8d-2bc047a1f900","5fd136069916af6a5522b109",NA,NA,"depictive",30,"ABBA","intervention","pulleys_1_ABBA_30",NA,"0.0-27.0","sanitycheck3",1,1607546374789,6,"intervention",NA,"sona","stim/pulleys_1_annotations_reduced.png",TRUE,6905,"https://causaldraw.s3.amazonaws.com/pulleys_1_ABBA_30.mp4","stim/gears_1_annotations_edited.png",NA,1607546367884,1607546336129,476279,"pulleys_1","pulleys","1",1,NA,28,"video-keyboard-response","video-keyboard-response",35,NA,"1",1,1,NA,1
"120","2865-0095daf3-a6ad-4bb7-9d8d-2bc047a1f900","5fd1362a9916af6a5522b10b",NA,NA,"depictive",30,"BAAB","intervention","levers_1_BAAB_30",NA,"0.0-28.0","sanitycheck3",4,1607546410548,6,"intervention",NA,"sona","stim/levers_1_annotations_reduced.png",TRUE,3143,"https://causaldraw.s3.amazonaws.com/levers_1_BAAB_30.mp4","stim/gears_1_annotations_edited.png",NA,1607546407405,1607546375804,512036,"levers_1","levers","1",2,NA,29,"video-keyboard-response","video-keyboard-response",35,NA,"4",1,1,NA,4
"121","3261-05d1982b-cef6-4123-8e48-9c907ae3f3e3","5fd13aeb9916af6a5522b1e4",NA,NA,"explanatory",30,"ABBA","intervention","levers_1_ABBA_30",NA,"0.0-26.0","sanitycheck3",4,1607547627618,6,"intervention",NA,"sona","stim/levers_1_annotations_reduced.png",TRUE,10900,"https://causaldraw.s3.amazonaws.com/levers_1_ABBA_30.mp4","stim/gears_1_annotations_edited.png",NA,1607547616718,1607547584840,390641,"levers_1","levers","1",0,NA,28,"video-keyboard-response","video-keyboard-response",56,NA,"4",1,1,NA,4
"122","3261-05d1982b-cef6-4123-8e48-9c907ae3f3e3","5fd13b0d9916af6a5522b1e6",NA,NA,"depictive",30,"ABBA","intervention","levers_2_ABBA_30",NA,"0.0-27.0","sanitycheck3",2,1607547661554,6,"intervention",NA,"sona","stim/levers_2_annotations_reduced.png",TRUE,1203,"https://causaldraw.s3.amazonaws.com/levers_2_ABBA_30.mp4","stim/gears_1_annotations_edited.png",NA,1607547660351,1607547628625,424578,"levers_2","levers","2",1,NA,29,"video-keyboard-response","video-keyboard-response",56,NA,"2",1,1,NA,2
"123","3261-05d1982b-cef6-4123-8e48-9c907ae3f3e3","5fd13b2f9916af6a5522b1e9",NA,NA,"explanatory",30,"BAAB","intervention","gears_1_BAAB_30",NA,"0.0-28.0","sanitycheck3",4,1607547695957,6,"intervention",NA,"sona","stim/gears_1_annotations_reduced.png",TRUE,1124,"https://causaldraw.s3.amazonaws.com/gears_1_BAAB_30.mp4","stim/gears_1_annotations_edited.png",NA,1607547694833,1607547662561,458980,"gears_1","gears","1",2,NA,30,"video-keyboard-response","video-keyboard-response",56,NA,"4",1,1,NA,4
"124","3261-05d1982b-cef6-4123-8e48-9c907ae3f3e3","5fd13b569916af6a5522b1ea",NA,NA,"depictive",30,"BAAB","intervention","pulleys_2_BAAB_30",NA,"0.0-29.0","sanitycheck3",1,1607547734888,6,"intervention",NA,"sona","stim/pulleys_2_annotations_reduced.png",TRUE,6177,"https://causaldraw.s3.amazonaws.com/pulleys_2_BAAB_30.mp4","stim/gears_1_annotations_edited.png",NA,1607547728711,1607547696963,497911,"pulleys_2","pulleys","2",3,NA,31,"video-keyboard-response","video-keyboard-response",56,NA,"1",1,1,NA,1
"125","3261-05d1982b-cef6-4123-8e48-9c907ae3f3e3","5fd13b9a9916af6a5522b1f8",NA,NA,"depictive",30,"BAAB","intervention","gears_2_BAAB_30",NA,"0.0-31.0","sanitycheck3",3,1607547802905,6,"intervention",NA,"sona","stim/gears_2_annotations_reduced.png",TRUE,934,"https://causaldraw.s3.amazonaws.com/gears_2_BAAB_30.mp4","stim/gears_1_annotations_edited.png",NA,1607547801971,1607547770157,565929,"gears_2","gears","2",5,NA,33,"video-keyboard-response","video-keyboard-response",56,NA,"3",1,1,NA,3
"126","3261-05d1982b-cef6-4123-8e48-9c907ae3f3e3","5fd13b799916af6a5522b1f1",NA,NA,"explanatory",30,"ABBA","intervention","pulleys_1_ABBA_30",NA,"0.0-30.0","sanitycheck3",1,1607547769150,6,"intervention",NA,"sona","stim/pulleys_1_annotations_reduced.png",TRUE,1824,"https://causaldraw.s3.amazonaws.com/pulleys_1_ABBA_30.mp4","stim/gears_1_annotations_edited.png",NA,1607547767326,1607547735893,532173,"pulleys_1","pulleys","1",4,NA,32,"video-keyboard-response","video-keyboard-response",56,NA,"1",1,1,NA,1
"127","3265-95fa1fd0-da65-49ad-8386-42c7d1d8ad19","5fd127929916af6a5522af24",NA,NA,"explanatory",30,"ABBA","intervention","pulleys_2_ABBA_30",NA,"0.0-26.0","sanitycheck3",1,1607542667398,6,"intervention",NA,"sona","stim/pulleys_2_annotations_reduced.png",TRUE,8261,"https://causaldraw.s3.amazonaws.com/pulleys_2_ABBA_30.mp4","stim/gears_1_annotations_edited.png",NA,1607542659137,1607542627358,375631,"pulleys_2","pulleys","2",0,NA,26,"video-keyboard-response","video-keyboard-response",127,NA,"1",1,1,NA,1
"128","3265-95fa1fd0-da65-49ad-8386-42c7d1d8ad19","5fd128439916af6a5522af56",NA,NA,"explanatory",30,"BAAB","intervention","gears_2_BAAB_30",NA,"0.0-31.0","sanitycheck3",4,1607542843269,6,"intervention",NA,"sona","stim/gears_2_annotations_reduced.png",TRUE,3131,"https://causaldraw.s3.amazonaws.com/gears_2_BAAB_30.mp4","stim/gears_1_annotations_edited.png",NA,1607542840138,1607542808232,551502,"gears_2","gears","2",5,NA,31,"video-keyboard-response","video-keyboard-response",127,NA,"3",0,1,NA,3
"129","3265-95fa1fd0-da65-49ad-8386-42c7d1d8ad19","5fd127da9916af6a5522af3a",NA,NA,"depictive",30,"BAAB","intervention","pulleys_1_BAAB_30",NA,"0.0-28.0","sanitycheck3",1,1607542738533,6,"intervention",NA,"sona","stim/pulleys_1_annotations_reduced.png",TRUE,1422,"https://causaldraw.s3.amazonaws.com/pulleys_1_BAAB_30.mp4","stim/gears_1_annotations_edited.png",NA,1607542737111,1607542702558,446766,"pulleys_1","pulleys","1",2,NA,28,"video-keyboard-response","video-keyboard-response",127,NA,"1",1,1,NA,1
"130","3265-95fa1fd0-da65-49ad-8386-42c7d1d8ad19","5fd127fd9916af6a5522af50",NA,NA,"explanatory",30,"ABBA","intervention","levers_2_ABBA_30",NA,"0.0-29.0","sanitycheck3",2,1607542773073,6,"intervention",NA,"sona","stim/levers_2_annotations_reduced.png",TRUE,1689,"https://causaldraw.s3.amazonaws.com/levers_2_ABBA_30.mp4","stim/gears_1_annotations_edited.png",NA,1607542771384,1607542739542,481306,"levers_2","levers","2",3,NA,29,"video-keyboard-response","video-keyboard-response",127,NA,"2",1,1,NA,2
"131","3265-95fa1fd0-da65-49ad-8386-42c7d1d8ad19","5fd127b59916af6a5522af30",NA,NA,"depictive",30,"BAAB","intervention","levers_1_BAAB_30",NA,"0.0-27.0","sanitycheck3",4,1607542701551,6,"intervention",NA,"sona","stim/levers_1_annotations_reduced.png",TRUE,1826,"https://causaldraw.s3.amazonaws.com/levers_1_BAAB_30.mp4","stim/gears_1_annotations_edited.png",NA,1607542699725,1607542668402,409784,"levers_1","levers","1",1,NA,27,"video-keyboard-response","video-keyboard-response",127,NA,"4",1,1,NA,4
"132","3265-95fa1fd0-da65-49ad-8386-42c7d1d8ad19","5fd1281e9916af6a5522af54",NA,NA,"depictive",30,"ABBA","intervention","gears_1_ABBA_30",NA,"0.0-30.0","sanitycheck3",4,1607542807225,6,"intervention",NA,"sona","stim/gears_1_annotations_reduced.png",TRUE,1337,"https://causaldraw.s3.amazonaws.com/gears_1_ABBA_30.mp4","stim/gears_1_annotations_edited.png",NA,1607542805888,1607542774077,515457,"gears_1","gears","1",4,NA,30,"video-keyboard-response","video-keyboard-response",127,NA,"4",1,1,NA,4
"133","3268-f07e6e2c-cfd3-4b90-b849-c538a1ed5cf0","5fd108a39916af6a5522adfa",NA,NA,"explanatory",30,"BAAB","intervention","pulleys_2_BAAB_30",NA,"0.0-28.0","sanitycheck3",1,1607534755161,6,"intervention",NA,"sona","stim/pulleys_2_annotations_reduced.png",TRUE,2269,"https://causaldraw.s3.amazonaws.com/pulleys_2_BAAB_30.mp4","stim/gears_1_annotations_edited.png",NA,1607534752892,1607534721095,309684,"pulleys_2","pulleys","2",2,NA,28,"video-keyboard-response","video-keyboard-response",62,NA,"1",1,1,NA,1
"134","3268-f07e6e2c-cfd3-4b90-b849-c538a1ed5cf0","5fd108c49916af6a5522adfb",NA,NA,"explanatory",30,"ABBA","intervention","levers_1_ABBA_30",NA,"0.0-29.0","sanitycheck3",4,1607534788768,6,"intervention",NA,"sona","stim/levers_1_annotations_reduced.png",TRUE,952,"https://causaldraw.s3.amazonaws.com/levers_1_ABBA_30.mp4","stim/gears_1_annotations_edited.png",NA,1607534787816,1607534756167,343290,"levers_1","levers","1",3,NA,29,"video-keyboard-response","video-keyboard-response",62,NA,"4",1,1,NA,4
"135","3268-f07e6e2c-cfd3-4b90-b849-c538a1ed5cf0","5fd108e69916af6a5522adfc",NA,NA,"depictive",30,"ABBA","intervention","pulleys_1_ABBA_30",NA,"0.0-30.0","sanitycheck3",1,1607534822522,6,"intervention",NA,"sona","stim/pulleys_1_annotations_reduced.png",TRUE,1246,"https://causaldraw.s3.amazonaws.com/pulleys_1_ABBA_30.mp4","stim/gears_1_annotations_edited.png",NA,1607534821276,1607534789774,377045,"pulleys_1","pulleys","1",4,NA,30,"video-keyboard-response","video-keyboard-response",62,NA,"1",1,1,NA,1
"136","3268-f07e6e2c-cfd3-4b90-b849-c538a1ed5cf0","5fd1085d9916af6a5522adf8",NA,NA,"depictive",30,"BAAB","intervention","gears_1_BAAB_30",NA,"0.0-26.0","sanitycheck3",4,1607534685787,6,"intervention",NA,"sona","stim/gears_1_annotations_reduced.png",TRUE,1348,"https://causaldraw.s3.amazonaws.com/gears_1_BAAB_30.mp4","stim/gears_1_annotations_edited.png",NA,1607534684439,1607534652445,240310,"gears_1","gears","1",0,NA,26,"video-keyboard-response","video-keyboard-response",62,NA,"4",1,1,NA,4
"137","3268-f07e6e2c-cfd3-4b90-b849-c538a1ed5cf0","5fd109089916af6a5522adfd",NA,NA,"depictive",30,"ABBA","intervention","levers_2_ABBA_30",NA,"0.0-31.0","sanitycheck3",2,1607534856778,6,"intervention",NA,"sona","stim/levers_2_annotations_reduced.png",TRUE,1437,"https://causaldraw.s3.amazonaws.com/levers_2_ABBA_30.mp4","stim/gears_1_annotations_edited.png",NA,1607534855341,1607534823529,411300,"levers_2","levers","2",5,NA,31,"video-keyboard-response","video-keyboard-response",62,NA,"2",1,1,NA,2
"138","3268-f07e6e2c-cfd3-4b90-b849-c538a1ed5cf0","5fd108809916af6a5522adf9",NA,NA,"explanatory",30,"BAAB","intervention","gears_2_BAAB_30",NA,"0.0-27.0","sanitycheck3",3,1607534720091,6,"intervention",NA,"sona","stim/gears_2_annotations_reduced.png",TRUE,1402,"https://causaldraw.s3.amazonaws.com/gears_2_BAAB_30.mp4","stim/gears_1_annotations_edited.png",NA,1607534718689,1607534686795,274613,"gears_2","gears","2",1,NA,27,"video-keyboard-response","video-keyboard-response",62,NA,"3",1,1,NA,3
"139","3303-b3e27764-f107-47cb-83a0-53020b7ad9d0","5fd08a659916af6a5522aac0",NA,NA,"explanatory",30,"BAAB","intervention","gears_1_BAAB_30",NA,"0.0-28.0","sanitycheck3",2,1607502437123,6,"intervention",NA,"sona","stim/gears_1_annotations_reduced.png",TRUE,3035,"https://causaldraw.s3.amazonaws.com/gears_1_BAAB_30.mp4","stim/gears_1_annotations_edited.png",NA,1607502434088,1607502402077,448871,"gears_1","gears","1",2,NA,28,"video-keyboard-response","video-keyboard-response",64,NA,"4",0,0,NA,4
"140","3303-b3e27764-f107-47cb-83a0-53020b7ad9d0","5fd08acd9916af6a5522aac8",NA,NA,"explanatory",30,"BAAB","intervention","pulleys_1_BAAB_30",NA,"0.0-31.0","sanitycheck3",1,1607502540203,6,"intervention",NA,"sona","stim/pulleys_1_annotations_reduced.png",TRUE,1275,"https://causaldraw.s3.amazonaws.com/pulleys_1_BAAB_30.mp4","stim/gears_1_annotations_edited.png",NA,1607502538928,1607502506527,551950,"pulleys_1","pulleys","1",5,NA,31,"video-keyboard-response","video-keyboard-response",64,NA,"1",1,1,NA,1
"141","3303-b3e27764-f107-47cb-83a0-53020b7ad9d0","5fd08a889916af6a5522aac4",NA,NA,"depictive",30,"ABBA","intervention","gears_2_ABBA_30",NA,"0.0-29.0","sanitycheck3",4,1607502472103,6,"intervention",NA,"sona","stim/gears_2_annotations_reduced.png",TRUE,1515,"https://causaldraw.s3.amazonaws.com/gears_2_ABBA_30.mp4","stim/gears_1_annotations_edited.png",NA,1607502470588,1607502438132,483850,"gears_2","gears","2",3,NA,29,"video-keyboard-response","video-keyboard-response",64,NA,"3",0,1,NA,3
"142","3303-b3e27764-f107-47cb-83a0-53020b7ad9d0","5fd08aaa9916af6a5522aac6",NA,NA,"explanatory",30,"ABBA","intervention","levers_1_ABBA_30",NA,"0.0-30.0","sanitycheck3",4,1607502505519,6,"intervention",NA,"sona","stim/levers_1_annotations_reduced.png",TRUE,651,"https://causaldraw.s3.amazonaws.com/levers_1_ABBA_30.mp4","stim/gears_1_annotations_edited.png",NA,1607502504868,1607502473109,517266,"levers_1","levers","1",4,NA,30,"video-keyboard-response","video-keyboard-response",64,NA,"4",1,1,NA,4
"143","3303-b3e27764-f107-47cb-83a0-53020b7ad9d0","5fd08a419916af6a5522aabe",NA,NA,"depictive",30,"BAAB","intervention","pulleys_2_BAAB_30",NA,"0.0-27.0","sanitycheck3",2,1607502401072,6,"intervention",NA,"sona","stim/pulleys_2_annotations_reduced.png",TRUE,3842,"https://causaldraw.s3.amazonaws.com/pulleys_2_BAAB_30.mp4","stim/gears_1_annotations_edited.png",NA,1607502397230,1607502365393,412820,"pulleys_2","pulleys","2",1,NA,27,"video-keyboard-response","video-keyboard-response",64,NA,"1",0,1,NA,1
"144","3303-b3e27764-f107-47cb-83a0-53020b7ad9d0","5fd08a1d9916af6a5522aabc",NA,NA,"depictive",30,"ABBA","intervention","levers_2_ABBA_30",NA,"0.0-26.0","sanitycheck3",2,1607502364388,6,"intervention",NA,"sona","stim/levers_2_annotations_reduced.png",TRUE,1059,"https://causaldraw.s3.amazonaws.com/levers_2_ABBA_30.mp4","stim/gears_1_annotations_edited.png",NA,1607502363329,1607502331154,376135,"levers_2","levers","2",0,NA,26,"video-keyboard-response","video-keyboard-response",64,NA,"2",1,1,NA,2
"145","3508-b7c11e9d-de9e-4089-b19b-0a4fee898bae","5fd133219916af6a5522b0e0",NA,NA,"depictive",30,"ABBA","intervention","gears_2_ABBA_30",NA,"0.0-31.0","sanitycheck3",4,1607545633958,6,"intervention",NA,"sona","stim/gears_2_annotations_reduced.png",TRUE,3500,"https://causaldraw.s3.amazonaws.com/gears_2_ABBA_30.mp4","stim/gears_1_annotations_edited.png",NA,1607545630458,1607545597939,972620,"gears_2","gears","2",5,NA,34,"video-keyboard-response","video-keyboard-response",11,NA,"3",0,1,NA,3
"146","3508-b7c11e9d-de9e-4089-b19b-0a4fee898bae","5fd1323c9916af6a5522b0ca",NA,NA,"depictive",30,"BAAB","intervention","levers_1_BAAB_30",NA,"0.0-26.0","sanitycheck3",4,1607545404479,6,"intervention",NA,"sona","stim/levers_1_annotations_reduced.png",TRUE,960,"https://causaldraw.s3.amazonaws.com/levers_1_BAAB_30.mp4","stim/gears_1_annotations_edited.png",NA,1607545403519,1607545371721,743141,"levers_1","levers","1",0,NA,29,"video-keyboard-response","video-keyboard-response",11,NA,"4",1,1,NA,4
"147","3508-b7c11e9d-de9e-4089-b19b-0a4fee898bae","5fd132af9916af6a5522b0da",NA,NA,"depictive",30,"BAAB","intervention","pulleys_1_BAAB_30",NA,"0.0-28.0","sanitycheck3",3,1607545519692,6,"intervention",NA,"sona","stim/pulleys_1_annotations_reduced.png",TRUE,10866,"https://causaldraw.s3.amazonaws.com/pulleys_1_BAAB_30.mp4","stim/gears_1_annotations_edited.png",NA,1607545508826,1607545476191,858354,"pulleys_1","pulleys","1",2,NA,31,"video-keyboard-response","video-keyboard-response",11,NA,"1",0,1,NA,1
"148","3508-b7c11e9d-de9e-4089-b19b-0a4fee898bae","5fd132d49916af6a5522b0dc",NA,NA,"explanatory",30,"BAAB","intervention","gears_1_BAAB_30",NA,"0.0-29.0","sanitycheck3",3,1607545556199,6,"intervention",NA,"sona","stim/gears_1_annotations_reduced.png",TRUE,3089,"https://causaldraw.s3.amazonaws.com/gears_1_BAAB_30.mp4","stim/gears_1_annotations_edited.png",NA,1607545553110,1607545520699,894861,"gears_1","gears","1",3,NA,32,"video-keyboard-response","video-keyboard-response",11,NA,"4",0,1,NA,4
"149","3508-b7c11e9d-de9e-4089-b19b-0a4fee898bae","5fd132839916af6a5522b0d3",NA,NA,"explanatory",30,"ABBA","intervention","pulleys_2_ABBA_30",NA,"0.0-27.0","sanitycheck3",2,1607545475186,6,"intervention",NA,"sona","stim/pulleys_2_annotations_reduced.png",TRUE,37759,"https://causaldraw.s3.amazonaws.com/pulleys_2_ABBA_30.mp4","stim/gears_1_annotations_edited.png",NA,1607545437427,1607545405483,813847,"pulleys_2","pulleys","2",1,NA,30,"video-keyboard-response","video-keyboard-response",11,NA,"1",0,1,NA,1
"150","3508-b7c11e9d-de9e-4089-b19b-0a4fee898bae","5fd132fc9916af6a5522b0de",NA,NA,"explanatory",30,"ABBA","intervention","levers_2_ABBA_30",NA,"0.0-30.0","sanitycheck3",2,1607545596931,6,"intervention",NA,"sona","stim/levers_2_annotations_reduced.png",TRUE,7806,"https://causaldraw.s3.amazonaws.com/levers_2_ABBA_30.mp4","stim/gears_1_annotations_edited.png",NA,1607545589125,1607545557206,935592,"levers_2","levers","2",4,NA,33,"video-keyboard-response","video-keyboard-response",11,NA,"2",1,1,NA,2
"151","3540-5706142c-3924-4a7a-87a5-f33c74115a0f","5fd08ecf9916af6a5522ab24",NA,NA,"depictive",30,"ABBA","intervention","levers_2_ABBA_30",NA,"0.0-29.0","sanitycheck3",4,1607503566982,6,"intervention",NA,"sona","stim/levers_2_annotations_reduced.png",TRUE,1114,"https://causaldraw.s3.amazonaws.com/levers_2_ABBA_30.mp4","stim/gears_1_annotations_edited.png",NA,1607503565868,1607503534130,414571,"levers_2","levers","2",3,NA,29,"video-keyboard-response","video-keyboard-response",76,NA,"2",0,1,NA,2
"152","3540-5706142c-3924-4a7a-87a5-f33c74115a0f","5fd08f139916af6a5522ab26",NA,NA,"depictive",30,"BAAB","intervention","gears_1_BAAB_30",NA,"0.0-31.0","sanitycheck3",4,1607503635029,6,"intervention",NA,"sona","stim/gears_1_annotations_reduced.png",TRUE,1322,"https://causaldraw.s3.amazonaws.com/gears_1_BAAB_30.mp4","stim/gears_1_annotations_edited.png",NA,1607503633707,1607503601929,482619,"gears_1","gears","1",5,NA,31,"video-keyboard-response","video-keyboard-response",76,NA,"4",1,1,NA,4
"153","3540-5706142c-3924-4a7a-87a5-f33c74115a0f","5fd08ef19916af6a5522ab25",NA,NA,"explanatory",30,"BAAB","intervention","pulleys_1_BAAB_30",NA,"0.0-30.0","sanitycheck3",1,1607503600926,6,"intervention",NA,"sona","stim/pulleys_1_annotations_reduced.png",TRUE,779,"https://causaldraw.s3.amazonaws.com/pulleys_1_BAAB_30.mp4","stim/gears_1_annotations_edited.png",NA,1607503600147,1607503567985,448515,"pulleys_1","pulleys","1",4,NA,30,"video-keyboard-response","video-keyboard-response",76,NA,"1",1,1,NA,1
"154","3540-5706142c-3924-4a7a-87a5-f33c74115a0f","5fd08ead9916af6a5522ab23",NA,NA,"explanatory",30,"ABBA","intervention","levers_1_ABBA_30",NA,"0.0-28.0","sanitycheck3",4,1607503533127,6,"intervention",NA,"sona","stim/levers_1_annotations_reduced.png",TRUE,1680,"https://causaldraw.s3.amazonaws.com/levers_1_ABBA_30.mp4","stim/gears_1_annotations_edited.png",NA,1607503531447,1607503499965,380716,"levers_1","levers","1",2,NA,28,"video-keyboard-response","video-keyboard-response",76,NA,"4",1,1,NA,4
"155","3540-5706142c-3924-4a7a-87a5-f33c74115a0f","5fd08e639916af6a5522ab1d",NA,NA,"depictive",30,"ABBA","intervention","pulleys_2_ABBA_30",NA,"0.0-26.0","sanitycheck3",1,1607503459667,6,"intervention",NA,"sona","stim/pulleys_2_annotations_reduced.png",TRUE,5500,"https://causaldraw.s3.amazonaws.com/pulleys_2_ABBA_30.mp4","stim/gears_1_annotations_edited.png",NA,1607503454167,1607503422593,307256,"pulleys_2","pulleys","2",0,NA,26,"video-keyboard-response","video-keyboard-response",76,NA,"1",1,1,NA,1
"156","3540-5706142c-3924-4a7a-87a5-f33c74115a0f","5fd08e8b9916af6a5522ab22",NA,NA,"explanatory",30,"BAAB","intervention","gears_2_BAAB_30",NA,"0.0-27.0","sanitycheck3",4,1607503498962,6,"intervention",NA,"sona","stim/gears_2_annotations_reduced.png",TRUE,6494,"https://causaldraw.s3.amazonaws.com/gears_2_BAAB_30.mp4","stim/gears_1_annotations_edited.png",NA,1607503492468,1607503460672,346551,"gears_2","gears","2",1,NA,27,"video-keyboard-response","video-keyboard-response",76,NA,"3",0,1,NA,3
"157","3697-a44bd037-1d04-4705-9e92-1101a41929cc","5fd132b79916af6a5522b0db",NA,NA,"depictive",30,"BAAB","intervention","levers_1_BAAB_30",NA,"0.0-27.0","sanitycheck3",4,1607545527173,6,"intervention",NA,"sona","stim/levers_1_annotations_reduced.png",TRUE,830,"https://causaldraw.s3.amazonaws.com/levers_1_BAAB_30.mp4","stim/gears_1_annotations_edited.png",NA,1607545526343,1607545494796,587857,"levers_1","levers","1",1,NA,27,"video-keyboard-response","video-keyboard-response",17,NA,"4",1,1,NA,4
"158","3697-a44bd037-1d04-4705-9e92-1101a41929cc","5fd1332b9916af6a5522b0e1",NA,NA,"explanatory",30,"BAAB","intervention","levers_2_BAAB_30",NA,"0.0-30.0","sanitycheck3",2,1607545643384,6,"intervention",NA,"sona","stim/levers_2_annotations_reduced.png",TRUE,1384,"https://causaldraw.s3.amazonaws.com/levers_2_BAAB_30.mp4","stim/gears_1_annotations_edited.png",NA,1607545642000,1607545606544,704068,"levers_2","levers","2",4,NA,30,"video-keyboard-response","video-keyboard-response",17,NA,"2",1,1,NA,2
"159","3697-a44bd037-1d04-4705-9e92-1101a41929cc","5fd132959916af6a5522b0d6",NA,NA,"explanatory",30,"ABBA","intervention","pulleys_1_ABBA_30",NA,"0.0-26.0","sanitycheck3",1,1607545493791,6,"intervention",NA,"sona","stim/pulleys_1_annotations_reduced.png",TRUE,1907,"https://causaldraw.s3.amazonaws.com/pulleys_1_ABBA_30.mp4","stim/gears_1_annotations_edited.png",NA,1607545491884,1607545460107,554475,"pulleys_1","pulleys","1",0,NA,26,"video-keyboard-response","video-keyboard-response",17,NA,"1",1,1,NA,1
"160","3697-a44bd037-1d04-4705-9e92-1101a41929cc","5fd133059916af6a5522b0df",NA,NA,"depictive",30,"ABBA","intervention","pulleys_2_ABBA_30",NA,"0.0-29.0","sanitycheck3",1,1607545605536,6,"intervention",NA,"sona","stim/pulleys_2_annotations_reduced.png",TRUE,7255,"https://causaldraw.s3.amazonaws.com/pulleys_2_ABBA_30.mp4","stim/gears_1_annotations_edited.png",NA,1607545598281,1607545565145,666219,"pulleys_2","pulleys","2",3,NA,29,"video-keyboard-response","video-keyboard-response",17,NA,"1",1,1,NA,1
"161","3697-a44bd037-1d04-4705-9e92-1101a41929cc","5fd132dc9916af6a5522b0dd",NA,NA,"depictive",30,"ABBA","intervention","gears_2_ABBA_30",NA,"0.0-28.0","sanitycheck3",3,1607545564140,6,"intervention",NA,"sona","stim/gears_2_annotations_reduced.png",TRUE,852,"https://causaldraw.s3.amazonaws.com/gears_2_ABBA_30.mp4","stim/gears_1_annotations_edited.png",NA,1607545563288,1607545528177,624823,"gears_2","gears","2",2,NA,28,"video-keyboard-response","video-keyboard-response",17,NA,"3",1,1,NA,3
"162","3697-a44bd037-1d04-4705-9e92-1101a41929cc","5fd133509916af6a5522b0e3",NA,NA,"explanatory",30,"BAAB","intervention","gears_1_BAAB_30",NA,"0.0-31.0","sanitycheck3",4,1607545680463,6,"intervention",NA,"sona","stim/gears_1_annotations_reduced.png",TRUE,846,"https://causaldraw.s3.amazonaws.com/gears_1_BAAB_30.mp4","stim/gears_1_annotations_edited.png",NA,1607545679617,1607545644392,741147,"gears_1","gears","1",5,NA,31,"video-keyboard-response","video-keyboard-response",17,NA,"4",1,1,NA,4
"163","3844-2aeec666-8392-47a3-b179-04e09cf2e8f9","5fd089c29916af6a5522aaac",NA,NA,"explanatory",30,"BAAB","intervention","pulleys_2_BAAB_30",NA,"0.0-27.0","sanitycheck3",1,1607502274238,6,"intervention",NA,"sona","stim/pulleys_2_annotations_reduced.png",TRUE,3472,"https://causaldraw.s3.amazonaws.com/pulleys_2_BAAB_30.mp4","stim/gears_1_annotations_edited.png",NA,1607502270766,1607502238997,309914,"pulleys_2","pulleys","2",1,NA,27,"video-keyboard-response","video-keyboard-response",63,NA,"1",1,1,NA,1
"164","3844-2aeec666-8392-47a3-b179-04e09cf2e8f9","5fd089e49916af6a5522aab7",NA,NA,"explanatory",30,"ABBA","intervention","levers_2_ABBA_30",NA,"0.0-28.0","sanitycheck3",2,1607502308505,6,"intervention",NA,"sona","stim/levers_2_annotations_reduced.png",TRUE,1471,"https://causaldraw.s3.amazonaws.com/levers_2_ABBA_30.mp4","stim/gears_1_annotations_edited.png",NA,1607502307034,1607502275243,344180,"levers_2","levers","2",2,NA,28,"video-keyboard-response","video-keyboard-response",63,NA,"2",1,1,NA,2
"165","3844-2aeec666-8392-47a3-b179-04e09cf2e8f9","5fd08a4d9916af6a5522aabf",NA,NA,"explanatory",30,"BAAB","intervention","gears_2_BAAB_30",NA,"0.0-31.0","sanitycheck3",3,1607502413585,6,"intervention",NA,"sona","stim/gears_2_annotations_reduced.png",TRUE,1205,"https://causaldraw.s3.amazonaws.com/gears_2_BAAB_30.mp4","stim/gears_1_annotations_edited.png",NA,1607502412380,1607502380478,449261,"gears_2","gears","2",5,NA,31,"video-keyboard-response","video-keyboard-response",63,NA,"3",1,1,NA,3
"166","3844-2aeec666-8392-47a3-b179-04e09cf2e8f9","5fd08a059916af6a5522aabb",NA,NA,"depictive",30,"ABBA","intervention","levers_1_ABBA_30",NA,"0.0-29.0","sanitycheck3",4,1607502341967,6,"intervention",NA,"sona","stim/levers_1_annotations_reduced.png",TRUE,842,"https://causaldraw.s3.amazonaws.com/levers_1_ABBA_30.mp4","stim/gears_1_annotations_edited.png",NA,1607502341125,1607502309511,377643,"levers_1","levers","1",3,NA,29,"video-keyboard-response","video-keyboard-response",63,NA,"4",1,1,NA,4
"167","3844-2aeec666-8392-47a3-b179-04e09cf2e8f9","5fd0899d9916af6a5522aaa9",NA,NA,"depictive",30,"BAAB","intervention","gears_1_BAAB_30",NA,"0.0-26.0","sanitycheck3",4,1607502237990,6,"intervention",NA,"sona","stim/gears_1_annotations_reduced.png",TRUE,4024,"https://causaldraw.s3.amazonaws.com/gears_1_BAAB_30.mp4","stim/gears_1_annotations_edited.png",NA,1607502233966,1607502201980,273665,"gears_1","gears","1",0,NA,26,"video-keyboard-response","video-keyboard-response",63,NA,"4",1,1,NA,4
"168","3844-2aeec666-8392-47a3-b179-04e09cf2e8f9","5fd08a2b9916af6a5522aabd",NA,NA,"depictive",30,"ABBA","intervention","pulleys_1_ABBA_30",NA,"0.0-30.0","sanitycheck3",1,1607502379471,6,"intervention",NA,"sona","stim/pulleys_1_annotations_reduced.png",TRUE,4980,"https://causaldraw.s3.amazonaws.com/pulleys_1_ABBA_30.mp4","stim/gears_1_annotations_edited.png",NA,1607502374491,1607502342973,415147,"pulleys_1","pulleys","1",4,NA,30,"video-keyboard-response","video-keyboard-response",63,NA,"1",1,1,NA,1
"169","3916-2c6909c1-e838-4a07-bd67-497c2a9247dd","5fd12e579916af6a5522aff6",NA,NA,"explanatory",30,"ABBA","intervention","pulleys_1_ABBA_30",NA,"0.0-27.0","sanitycheck3",1,1607544407840,6,"intervention",NA,"sona","stim/pulleys_1_annotations_reduced.png",TRUE,4372,"https://causaldraw.s3.amazonaws.com/pulleys_1_ABBA_30.mp4","stim/gears_1_annotations_edited.png",NA,1607544403468,1607544371897,336648,"pulleys_1","pulleys","1",1,NA,27,"video-keyboard-response","video-keyboard-response",1,NA,"1",1,1,NA,1
"170","3916-2c6909c1-e838-4a07-bd67-497c2a9247dd","5fd12ec99916af6a5522b001",NA,NA,"depictive",30,"ABBA","intervention","levers_1_ABBA_30",NA,"0.0-30.0","sanitycheck3",4,1607544521973,6,"intervention",NA,"sona","stim/levers_1_annotations_reduced.png",TRUE,1623,"https://causaldraw.s3.amazonaws.com/levers_1_ABBA_30.mp4","stim/gears_1_annotations_edited.png",NA,1607544520350,1607544488447,450781,"levers_1","levers","1",4,NA,30,"video-keyboard-response","video-keyboard-response",1,NA,"4",1,1,NA,4
"171","3916-2c6909c1-e838-4a07-bd67-497c2a9247dd","5fd12ea79916af6a5522affe",NA,NA,"explanatory",30,"BAAB","intervention","levers_2_BAAB_30",NA,"0.0-29.0","sanitycheck3",2,1607544487427,6,"intervention",NA,"sona","stim/levers_2_annotations_reduced.png",TRUE,4895,"https://causaldraw.s3.amazonaws.com/levers_2_BAAB_30.mp4","stim/gears_1_annotations_edited.png",NA,1607544482532,1607544449978,416235,"levers_2","levers","2",3,NA,29,"video-keyboard-response","video-keyboard-response",1,NA,"2",1,1,NA,2
"172","3916-2c6909c1-e838-4a07-bd67-497c2a9247dd","5fd12e329916af6a5522afef",NA,NA,"explanatory",30,"BAAB","intervention","gears_1_BAAB_30",NA,"0.0-26.0","sanitycheck3",4,1607544370890,6,"intervention",NA,"sona","stim/gears_1_annotations_reduced.png",TRUE,5480,"https://causaldraw.s3.amazonaws.com/gears_1_BAAB_30.mp4","stim/gears_1_annotations_edited.png",NA,1607544365410,1607544333000,299698,"gears_1","gears","1",0,NA,26,"video-keyboard-response","video-keyboard-response",1,NA,"4",1,1,NA,4
"173","3916-2c6909c1-e838-4a07-bd67-497c2a9247dd","5fd12e809916af6a5522affb",NA,NA,"depictive",30,"ABBA","intervention","pulleys_2_ABBA_30",NA,"0.0-28.0","sanitycheck3",1,1607544448956,6,"intervention",NA,"sona","stim/pulleys_2_annotations_reduced.png",TRUE,8126,"https://causaldraw.s3.amazonaws.com/pulleys_2_ABBA_30.mp4","stim/gears_1_annotations_edited.png",NA,1607544440830,1607544408847,377765,"pulleys_2","pulleys","2",2,NA,28,"video-keyboard-response","video-keyboard-response",1,NA,"1",1,1,NA,1
"174","3916-2c6909c1-e838-4a07-bd67-497c2a9247dd","5fd12eef9916af6a5522b00f",NA,NA,"depictive",30,"BAAB","intervention","gears_2_BAAB_30",NA,"0.0-31.0","sanitycheck3",3,1607544559857,6,"intervention",NA,"sona","stim/gears_2_annotations_reduced.png",TRUE,4948,"https://causaldraw.s3.amazonaws.com/gears_2_BAAB_30.mp4","stim/gears_1_annotations_edited.png",NA,1607544554909,1607544522977,488666,"gears_2","gears","2",5,NA,31,"video-keyboard-response","video-keyboard-response",1,NA,"3",1,1,NA,3
"175","3928-1ee96bab-08fe-424f-938d-8b6f25de409d","5fd08e6e9916af6a5522ab1f",NA,NA,"depictive",30,"ABBA","intervention","pulleys_2_ABBA_30",NA,"0.0-31.0","sanitycheck3",2,1607503470136,6,"intervention",NA,"sona","stim/pulleys_2_annotations_reduced.png",TRUE,1103,"https://causaldraw.s3.amazonaws.com/pulleys_2_ABBA_30.mp4","stim/gears_1_annotations_edited.png",NA,1607503469033,1607503437120,507119,"pulleys_2","pulleys","2",5,NA,31,"video-keyboard-response","video-keyboard-response",73,NA,"1",0,1,NA,1
"176","3928-1ee96bab-08fe-424f-938d-8b6f25de409d","5fd08dbf9916af6a5522ab05",NA,NA,"depictive",30,"ABBA","intervention","levers_1_ABBA_30",NA,"0.0-26.0","sanitycheck3",2,1607503295827,6,"intervention",NA,"sona","stim/levers_1_annotations_reduced.png",TRUE,12659,"https://causaldraw.s3.amazonaws.com/levers_1_ABBA_30.mp4","stim/gears_1_annotations_edited.png",NA,1607503283168,1607503251225,332810,"levers_1","levers","1",0,NA,26,"video-keyboard-response","video-keyboard-response",73,NA,"4",0,1,NA,4
"177","3928-1ee96bab-08fe-424f-938d-8b6f25de409d","5fd08e279916af6a5522ab18",NA,NA,"explanatory",30,"BAAB","intervention","pulleys_1_BAAB_30",NA,"0.0-29.0","sanitycheck3",4,1607503399280,6,"intervention",NA,"sona","stim/pulleys_1_annotations_reduced.png",TRUE,1208,"https://causaldraw.s3.amazonaws.com/pulleys_1_BAAB_30.mp4","stim/gears_1_annotations_edited.png",NA,1607503398072,1607503365027,436263,"pulleys_1","pulleys","1",3,NA,29,"video-keyboard-response","video-keyboard-response",73,NA,"1",0,0,NA,1
"178","3928-1ee96bab-08fe-424f-938d-8b6f25de409d","5fd08de19916af6a5522ab13",NA,NA,"explanatory",30,"ABBA","intervention","levers_2_ABBA_30",NA,"0.0-27.0","sanitycheck3",2,1607503329908,6,"intervention",NA,"sona","stim/levers_2_annotations_reduced.png",TRUE,1195,"https://causaldraw.s3.amazonaws.com/levers_2_ABBA_30.mp4","stim/gears_1_annotations_edited.png",NA,1607503328713,1607503296833,366891,"levers_2","levers","2",1,NA,27,"video-keyboard-response","video-keyboard-response",73,NA,"2",1,1,NA,2
"179","3928-1ee96bab-08fe-424f-938d-8b6f25de409d","5fd08e4c9916af6a5522ab1b",NA,NA,"explanatory",30,"BAAB","intervention","gears_1_BAAB_30",NA,"0.0-30.0","sanitycheck3",3,1607503436112,6,"intervention",NA,"sona","stim/gears_1_annotations_reduced.png",TRUE,3814,"https://causaldraw.s3.amazonaws.com/gears_1_BAAB_30.mp4","stim/gears_1_annotations_edited.png",NA,1607503432298,1607503400288,473094,"gears_1","gears","1",4,NA,30,"video-keyboard-response","video-keyboard-response",73,NA,"4",0,1,NA,4
"180","3928-1ee96bab-08fe-424f-938d-8b6f25de409d","5fd08e049916af6a5522ab16",NA,NA,"depictive",30,"BAAB","intervention","gears_2_BAAB_30",NA,"0.0-28.0","sanitycheck3",4,1607503364018,6,"intervention",NA,"sona","stim/gears_2_annotations_reduced.png",TRUE,1172,"https://causaldraw.s3.amazonaws.com/gears_2_BAAB_30.mp4","stim/gears_1_annotations_edited.png",NA,1607503362846,1607503330916,401001,"gears_2","gears","2",2,NA,28,"video-keyboard-response","video-keyboard-response",73,NA,"3",0,1,NA,3
"181","4059-c6c7e447-8248-447b-9cc3-69736d2d34ec","5fd115bb9916af6a5522ae72",NA,NA,"depictive",30,"ABBA","intervention","gears_2_ABBA_30",NA,"0.0-26.0","sanitycheck3",3,1607538107091,6,"intervention",NA,"sona","stim/gears_2_annotations_reduced.png",TRUE,3042,"https://causaldraw.s3.amazonaws.com/gears_2_ABBA_30.mp4","stim/gears_1_annotations_edited.png",NA,1607538104049,1607538071157,422841,"gears_2","gears","2",0,NA,26,"video-keyboard-response","video-keyboard-response",80,NA,"3",1,1,NA,3
"182","4059-c6c7e447-8248-447b-9cc3-69736d2d34ec","5fd116569916af6a5522ae79",NA,NA,"depictive",30,"ABBA","intervention","levers_2_ABBA_30",NA,"0.0-30.0","sanitycheck3",2,1607538262450,6,"intervention",NA,"sona","stim/levers_2_annotations_reduced.png",TRUE,4273,"https://causaldraw.s3.amazonaws.com/levers_2_ABBA_30.mp4","stim/gears_1_annotations_edited.png",NA,1607538258177,1607538226169,578199,"levers_2","levers","2",4,NA,30,"video-keyboard-response","video-keyboard-response",80,NA,"2",1,1,NA,2
"183","4059-c6c7e447-8248-447b-9cc3-69736d2d34ec","5fd116789916af6a5522ae7a",NA,NA,"explanatory",30,"BAAB","intervention","levers_1_BAAB_30",NA,"0.0-31.0","sanitycheck3",4,1607538296062,6,"intervention",NA,"sona","stim/levers_1_annotations_reduced.png",TRUE,1192,"https://causaldraw.s3.amazonaws.com/levers_1_BAAB_30.mp4","stim/gears_1_annotations_edited.png",NA,1607538294870,1607538263456,611812,"levers_1","levers","1",5,NA,31,"video-keyboard-response","video-keyboard-response",80,NA,"4",1,1,NA,4
"184","4059-c6c7e447-8248-447b-9cc3-69736d2d34ec","5fd116319916af6a5522ae78",NA,NA,"explanatory",30,"BAAB","intervention","gears_1_BAAB_30",NA,"0.0-29.0","sanitycheck3",4,1607538225165,6,"intervention",NA,"sona","stim/gears_1_annotations_reduced.png",TRUE,2807,"https://causaldraw.s3.amazonaws.com/gears_1_BAAB_30.mp4","stim/gears_1_annotations_edited.png",NA,1607538222358,1607538190082,540914,"gears_1","gears","1",3,NA,29,"video-keyboard-response","video-keyboard-response",80,NA,"4",1,1,NA,4
"185","4059-c6c7e447-8248-447b-9cc3-69736d2d34ec","5fd1160d9916af6a5522ae77",NA,NA,"depictive",30,"BAAB","intervention","pulleys_2_BAAB_30",NA,"0.0-28.0","sanitycheck3",1,1607538189073,6,"intervention",NA,"sona","stim/pulleys_2_annotations_reduced.png",TRUE,13537,"https://causaldraw.s3.amazonaws.com/pulleys_2_BAAB_30.mp4","stim/gears_1_annotations_edited.png",NA,1607538175536,1607538143350,504823,"pulleys_2","pulleys","2",2,NA,28,"video-keyboard-response","video-keyboard-response",80,NA,"1",1,1,NA,1
"186","4059-c6c7e447-8248-447b-9cc3-69736d2d34ec","5fd115de9916af6a5522ae76",NA,NA,"explanatory",30,"ABBA","intervention","pulleys_1_ABBA_30",NA,"0.0-27.0","sanitycheck3",1,1607538142343,6,"intervention",NA,"sona","stim/pulleys_1_annotations_reduced.png",TRUE,2625,"https://causaldraw.s3.amazonaws.com/pulleys_1_ABBA_30.mp4","stim/gears_1_annotations_edited.png",NA,1607538139718,1607538108097,458093,"pulleys_1","pulleys","1",1,NA,27,"video-keyboard-response","video-keyboard-response",80,NA,"1",1,1,NA,1
"187","4097-f7ce7100-08e1-49c1-b51c-39eafa0dddf5","5fd131e69916af6a5522b0c0",NA,NA,"explanatory",30,"BAAB","intervention","gears_1_BAAB_30",NA,"0.0-27.0","sanitycheck3",4,1607545318410,6,"intervention",NA,"sona","stim/gears_1_annotations_reduced.png",TRUE,1329,"https://causaldraw.s3.amazonaws.com/gears_1_BAAB_30.mp4","stim/gears_1_annotations_edited.png",NA,1607545317081,1607545285155,356796,"gears_1","gears","1",1,NA,27,"video-keyboard-response","video-keyboard-response",19,NA,"4",1,1,NA,4
"188","4097-f7ce7100-08e1-49c1-b51c-39eafa0dddf5","5fd132509916af6a5522b0cd",NA,NA,"depictive",30,"ABBA","intervention","gears_2_ABBA_30",NA,"0.0-30.0","sanitycheck3",3,1607545424926,6,"intervention",NA,"sona","stim/gears_2_annotations_reduced.png",TRUE,6028,"https://causaldraw.s3.amazonaws.com/gears_2_ABBA_30.mp4","stim/gears_1_annotations_edited.png",NA,1607545418898,1607545386437,463313,"gears_2","gears","2",4,NA,30,"video-keyboard-response","video-keyboard-response",19,NA,"3",1,1,NA,3
"189","4097-f7ce7100-08e1-49c1-b51c-39eafa0dddf5","5fd132079916af6a5522b0c5",NA,NA,"depictive",30,"ABBA","intervention","pulleys_1_ABBA_30",NA,"0.0-28.0","sanitycheck3",1,1607545351762,6,"intervention",NA,"sona","stim/pulleys_1_annotations_reduced.png",TRUE,828,"https://causaldraw.s3.amazonaws.com/pulleys_1_ABBA_30.mp4","stim/gears_1_annotations_edited.png",NA,1607545350934,1607545319420,390149,"pulleys_1","pulleys","1",2,NA,28,"video-keyboard-response","video-keyboard-response",19,NA,"1",1,1,NA,1
"190","4097-f7ce7100-08e1-49c1-b51c-39eafa0dddf5","5fd132829916af6a5522b0d1",NA,NA,"explanatory",30,"ABBA","intervention","pulleys_2_ABBA_30",NA,"0.0-31.0","sanitycheck3",1,1607545474061,6,"intervention",NA,"sona","stim/pulleys_2_annotations_reduced.png",TRUE,16258,"https://causaldraw.s3.amazonaws.com/pulleys_2_ABBA_30.mp4","stim/gears_1_annotations_edited.png",NA,1607545457803,1607545425932,512450,"pulleys_2","pulleys","2",5,NA,31,"video-keyboard-response","video-keyboard-response",19,NA,"1",1,1,NA,1
"191","4097-f7ce7100-08e1-49c1-b51c-39eafa0dddf5","5fd132299916af6a5522b0c8",NA,NA,"depictive",30,"BAAB","intervention","levers_1_BAAB_30",NA,"0.0-29.0","sanitycheck3",4,1607545385428,6,"intervention",NA,"sona","stim/levers_1_annotations_reduced.png",TRUE,1314,"https://causaldraw.s3.amazonaws.com/levers_1_BAAB_30.mp4","stim/gears_1_annotations_edited.png",NA,1607545384114,1607545352772,423815,"levers_1","levers","1",3,NA,29,"video-keyboard-response","video-keyboard-response",19,NA,"4",1,1,NA,4
"192","4097-f7ce7100-08e1-49c1-b51c-39eafa0dddf5","5fd131c49916af6a5522b0bc",NA,NA,"explanatory",30,"BAAB","intervention","levers_2_BAAB_30",NA,"0.0-26.0","sanitycheck3",2,1607545284147,6,"intervention",NA,"sona","stim/levers_2_annotations_reduced.png",TRUE,1221,"https://causaldraw.s3.amazonaws.com/levers_2_BAAB_30.mp4","stim/gears_1_annotations_edited.png",NA,1607545282926,1607545250355,322533,"levers_2","levers","2",0,NA,26,"video-keyboard-response","video-keyboard-response",19,NA,"2",1,1,NA,2
"193","4132-d77ae2f2-dbb9-4445-806d-a1b21b639475","5fd132739916af6a5522b0cf",NA,NA,"depictive",30,"BAAB","intervention","levers_2_BAAB_30",NA,"0.0-31.0","sanitycheck3",2,1607545459066,6,"intervention",NA,"sona","stim/levers_2_annotations_reduced.png",TRUE,1377,"https://causaldraw.s3.amazonaws.com/levers_2_BAAB_30.mp4","stim/gears_1_annotations_edited.png",NA,1607545457689,1607545425266,422526,"levers_2","levers","2",5,NA,32,"video-keyboard-response","video-keyboard-response",20,NA,"2",1,1,NA,2
"194","4132-d77ae2f2-dbb9-4445-806d-a1b21b639475","5fd131e69916af6a5522b0c1",NA,NA,"explanatory",30,"ABBA","intervention","gears_2_ABBA_30",NA,"0.0-27.0","sanitycheck3",4,1607545318683,6,"intervention",NA,"sona","stim/gears_2_annotations_reduced.png",TRUE,1015,"https://causaldraw.s3.amazonaws.com/gears_2_ABBA_30.mp4","stim/gears_1_annotations_edited.png",NA,1607545317668,1607545285046,282142,"gears_2","gears","2",1,NA,28,"video-keyboard-response","video-keyboard-response",20,NA,"3",0,1,NA,3
"195","4132-d77ae2f2-dbb9-4445-806d-a1b21b639475","5fd131c49916af6a5522b0bb",NA,NA,"explanatory",30,"BAAB","intervention","levers_1_BAAB_30",NA,"0.0-26.0","sanitycheck3",4,1607545284040,6,"intervention",NA,"sona","stim/levers_1_annotations_reduced.png",TRUE,2571,"https://causaldraw.s3.amazonaws.com/levers_1_BAAB_30.mp4","stim/gears_1_annotations_edited.png",NA,1607545281469,1607545250101,247500,"levers_1","levers","1",0,NA,27,"video-keyboard-response","video-keyboard-response",20,NA,"4",1,1,NA,4
"196","4132-d77ae2f2-dbb9-4445-806d-a1b21b639475","5fd1320a9916af6a5522b0c6",NA,NA,"depictive",30,"BAAB","intervention","gears_1_BAAB_30",NA,"0.0-28.0","sanitycheck3",4,1607545354891,6,"intervention",NA,"sona","stim/gears_1_annotations_reduced.png",TRUE,2925,"https://causaldraw.s3.amazonaws.com/gears_1_BAAB_30.mp4","stim/gears_1_annotations_edited.png",NA,1607545351966,1607545319691,318351,"gears_1","gears","1",2,NA,29,"video-keyboard-response","video-keyboard-response",20,NA,"4",1,1,NA,4
"197","4132-d77ae2f2-dbb9-4445-806d-a1b21b639475","5fd1322d9916af6a5522b0c9",NA,NA,"depictive",30,"ABBA","intervention","pulleys_2_ABBA_30",NA,"0.0-29.0","sanitycheck3",2,1607545389516,6,"intervention",NA,"sona","stim/pulleys_2_annotations_reduced.png",TRUE,1767,"https://causaldraw.s3.amazonaws.com/pulleys_2_ABBA_30.mp4","stim/gears_1_annotations_edited.png",NA,1607545387749,1607545355900,352976,"pulleys_2","pulleys","2",3,NA,30,"video-keyboard-response","video-keyboard-response",20,NA,"1",0,1,NA,1
"198","4132-d77ae2f2-dbb9-4445-806d-a1b21b639475","5fd132509916af6a5522b0cc",NA,NA,"explanatory",30,"ABBA","intervention","pulleys_1_ABBA_30",NA,"0.0-30.0","sanitycheck3",1,1607545424258,6,"intervention",NA,"sona","stim/pulleys_1_annotations_reduced.png",TRUE,2167,"https://causaldraw.s3.amazonaws.com/pulleys_1_ABBA_30.mp4","stim/gears_1_annotations_edited.png",NA,1607545422091,1607545390522,387717,"pulleys_1","pulleys","1",4,NA,31,"video-keyboard-response","video-keyboard-response",20,NA,"1",1,1,NA,1
"199","4197-e3c5a74c-d090-4915-a499-c6fa62607da4","5fd094f19916af6a5522abc3",NA,NA,"depictive",30,"BAAB","intervention","pulleys_1_BAAB_30",NA,"0.0-30.0","sanitycheck3",1,1607505137979,6,"intervention",NA,"sona","stim/pulleys_1_annotations_reduced.png",TRUE,4069,"https://causaldraw.s3.amazonaws.com/pulleys_1_BAAB_30.mp4","stim/gears_1_annotations_edited.png",NA,1607505133910,1607505101429,473622,"pulleys_1","pulleys","1",4,NA,30,"video-keyboard-response","video-keyboard-response",90,NA,"1",1,1,NA,1
